Name           :	.2mgmlPOPG_O1	
User           :	Isaac	
Date           :	7/29/2014	

Probe1         :	Wilhelmy	
Perimeter      : 	39.240	

Probe2         :	Wilhelmy	
Perimeter      : 	39.240	

Trough         :	Extra Small	
Width          :	50.0	
Area           :	7035.0	
Symmetric comp :	True	

Subphase       :	Water	
Surface tension:	72.80	
pH             :	7.00	
Temperature    :	19.5	

Addition       :		
Concentration  :		
Unit           :	Unknown         	

Substance1     :	POPG	
MW             :	771.0	
Concentration  :	0.200	
Unit           :	mg/ml           	
Volume         :	0.00	

Substance2     :		
MW             : 		
Concentration  : 		
Unit           :	Unknown         	
Volume         : 		

Substrate      :		
Height         : 		
Shape          : 	Rectangle       	
Width          :		
Thickness      :		


t[s]	Bpos	Bspd	A[cm²]	Mma[Å²]	P1[mN/m]	P2[mN/m]	T[°C]	SP[V]	pH	AD[V]
185.15	30.555	13.510	39.79		10.919	10.983	104.31		-1.22	0.000
185.41	30.621	13.498	39.73		10.948	10.995	116.26		-1.22	0.000
185.70	30.687	13.438	39.66		10.985	11.008	140.52		-1.22	0.000
185.97	30.732	13.353	39.62		11.023	11.034	151.20		-1.22	0.000
186.24	30.800	13.233	39.55		11.063	11.073	160.69		-1.22	0.000
186.52	30.864	13.077	39.49		11.096	11.108	131.27		-1.22	0.000
186.79	30.908	12.885	39.44		11.134	11.123	117.11		-1.22	0.000
187.06	30.973	12.656	39.38		11.171	11.158	99.77		-1.22	0.000
187.33	31.033	12.404	39.32		11.189	11.191	90.48		-1.22	0.000
187.61	31.095	12.103	39.26		11.223	11.229	73.46		-1.22	0.000
187.88	31.136	11.779	39.21		11.255	11.263	51.19		-1.22	0.000
188.16	31.194	11.418	39.16		11.285	11.297	-16.90		-1.22	0.000
188.43	31.249	11.034	39.10		11.314	11.329	-64.41		-1.22	0.000
188.70	31.305	10.625	39.04		11.342	11.362	-165.86		-1.22	0.000
188.98	31.338	10.180	39.01		11.369	11.391	-209.30		-1.22	0.000
189.26	31.388	9.700	38.96		11.392	11.422	-244.40		-1.22	0.000
189.54	31.435	9.195	38.92		11.413	11.449	-251.56		-1.22	0.000
189.82	31.478	8.678	38.87		11.433	11.468	-295.14		-1.22	0.000
190.10	31.508	8.113	38.84		11.453	11.493	-323.65		-1.22	0.000
190.37	31.545	7.524	38.81		11.481	11.507	-364.92		-1.22	0.000
190.65	31.582	6.935	38.77		11.501	11.530	-371.60		-1.22	0.000
190.93	31.615	6.310	38.73		11.517	11.550	-382.55		-1.22	0.000
191.20	31.636	5.685	38.71		11.531	11.568	-388.66		-1.22	0.000
191.48	31.659	5.036	38.69		11.542	11.585	-392.27		-1.22	0.000
191.76	31.683	4.375	38.67		11.552	11.599	-381.65		-1.22	0.000
192.04	31.705	3.714	38.64		11.559	11.608	-384.69		-1.22	0.000
192.31	31.713	3.017	38.64		11.563	11.614	-377.36		-1.22	0.000
192.58	31.727	2.320	38.62		11.567	11.621	-360.16		-1.22	0.000
192.85	31.736	1.635	38.61		11.562	11.626	-293.03		-1.22	0.000
193.12	31.740	0.950	38.61		11.562	11.629	-263.60		-1.22	0.000
193.39	31.741	0.252	38.61		11.541	11.634	-207.35		-1.22	0.000
193.67	31.742	-0.421	38.61		11.539	11.633	-182.06		-1.22	0.000
193.94	31.742	-1.106	38.61		11.537	11.626	-119.69		-1.22	0.000
194.21	31.742	-1.791	38.61		11.532	11.620	-90.09		-1.22	0.000
194.49	31.742	-2.488	38.61		11.529	11.616	-44.92		-1.22	0.000
194.76	31.728	-3.173	38.62		11.525	11.611	-32.72		-1.22	0.000
195.04	31.708	-3.834	38.64		11.518	11.606	-17.70		-1.22	0.000
195.31	31.697	-4.495	38.65		11.513	11.601	-22.70		-1.22	0.000
195.59	31.669	-5.156	38.68		11.504	11.598	-31.71		-1.22	0.000
195.87	31.640	-5.805	38.71		11.491	11.592	-34.22		-1.22	0.000
196.15	31.609	-6.430	38.74		11.484	11.580	-25.38		-1.22	0.000
196.42	31.587	-7.043	38.76		11.470	11.567	-18.83		-1.22	0.000
196.70	31.551	-7.632	38.80		11.465	11.553	0.34		-1.22	0.000
196.97	31.510	-8.197	38.84		11.461	11.548	6.35		-1.22	0.000
197.25	31.467	-8.750	38.88		11.453	11.543	17.72		-1.22	0.000
197.52	31.438	-9.267	38.91		11.443	11.536	12.95		-1.22	0.000
197.80	31.390	-9.772	38.96		11.418	11.530	-16.51		-1.22	0.000
198.08	31.340	-10.240	39.01		11.395	11.517	-34.85		-1.22	0.000
198.35	31.288	-10.685	39.06		11.368	11.498	-64.88		-1.22	0.000
198.63	31.250	-11.106	39.10		11.340	11.475	-85.88		-1.22	0.000
198.91	31.195	-11.490	39.16		11.313	11.455	-97.14		-1.22	0.000
199.19	31.136	-11.851	39.21		11.284	11.428	-116.17		-1.22	0.000
199.47	31.076	-12.175	39.27		11.289	11.399	-121.98		-1.22	0.000
199.75	31.036	-12.464	39.31		11.261	11.373	-100.43		-1.22	0.000
200.03	30.973	-12.716	39.38		11.231	11.344	-81.17		-1.22	0.000
200.30	30.909	-12.945	39.44		11.198	11.309	-37.13		-1.22	0.000
200.57	30.842	-13.125	39.51		11.171	11.290	-5.92		-1.22	0.000
200.85	30.799	-13.269	39.55		11.141	11.259	80.90		-1.22	0.000
201.13	30.732	-13.389	39.62		11.110	11.228	128.90		-1.22	0.000
201.41	30.664	-13.462	39.69		11.078	11.200	185.22		-1.22	0.000
201.68	30.597	-13.498	39.75		11.046	11.173	198.20		-1.22	0.000
201.96	30.553	-13.510	39.80		11.014	11.143	214.11		-1.22	0.000
202.23	30.486	-13.474	39.86		10.984	11.110	216.76		-1.22	0.000
202.51	30.418	-13.401	39.93		10.951	11.077	204.68		-1.22	0.000
202.79	30.351	-13.293	40.00		10.923	11.045	159.38		-1.22	0.000
203.08	30.285	-13.149	40.07		10.890	11.013	136.92		-1.22	0.000
203.35	30.241	-12.969	40.11		10.852	10.978	99.23		-1.22	0.000
203.63	30.177	-12.752	40.17		10.810	10.946	81.84		-1.22	0.000
203.90	30.114	-12.500	40.24		10.773	10.908	56.93		-1.22	0.000
204.17	30.053	-12.224	40.30		10.736	10.868	56.95		-1.22	0.000
204.45	30.013	-11.899	40.34		10.701	10.848	70.15		-1.22	0.000
204.73	29.954	-11.563	40.40		10.664	10.811	74.45		-1.22	0.000
205.01	29.895	-11.178	40.46		10.629	10.772	78.93		-1.22	0.000
205.29	29.842	-10.769	40.51		10.599	10.737	83.13		-1.22	0.000
205.56	29.805	-10.325	40.54		10.567	10.699	113.44		-1.22	0.000
205.84	29.757	-9.844	40.59		10.538	10.665	143.70		-1.22	0.000
206.13	29.709	-9.351	40.64		10.510	10.629	200.81		-1.22	0.000
206.40	29.664	-8.834	40.69		10.482	10.597	228.79		-1.22	0.000
206.68	29.636	-8.269	40.71		10.454	10.571	283.00		-1.22	0.000
206.96	29.595	-7.704	40.76		10.430	10.543	320.10		-1.22	0.000
207.23	29.559	-7.103	40.79		10.407	10.519	334.83		-1.22	0.000
207.52	29.524	-6.502	40.83		10.389	10.497	344.86		-1.22	0.000
207.79	29.494	-5.877	40.86		10.372	10.472	327.88		-1.22	0.000
208.07	29.476	-5.216	40.87		10.355	10.450	257.86		-1.22	0.000
208.34	29.454	-4.567	40.90		10.341	10.435	212.25		-1.22	0.000
208.62	29.431	-3.906	40.92		10.330	10.430	111.72		-1.22	0.000
208.90	29.414	-3.233	40.94		10.320	10.415	68.59		-1.22	0.000
209.17	29.405	-2.536	40.94		10.313	10.402	-0.54		-1.22	0.000
209.44	29.395	-1.839	40.96		10.329	10.387	-31.12		-1.22	0.000
209.71	29.391	-1.154	40.96		10.324	10.378	-83.11		-1.22	0.000
209.98	29.389	-0.469	40.96		10.322	10.372	-109.11		-1.22	0.000
210.25	29.387	0.216	40.96		10.319	10.367	-162.30		-1.22	0.000
210.52	29.387	0.901	40.96		10.321	10.366	-182.94		-1.22	0.000
210.80	29.387	1.599	40.96		10.319	10.368	-205.75		-1.22	0.000
211.07	29.387	2.272	40.96		10.319	10.370	-214.19		-1.22	0.000
211.34	29.395	2.957	40.96		10.318	10.371	-232.05		-1.22	0.000
211.61	29.414	3.630	40.94		10.319	10.371	-239.18		-1.22	0.000
211.90	29.431	4.291	40.92		10.315	10.371	-274.32		-1.22	0.000
212.17	29.453	4.940	40.90		10.319	10.371	-298.77		-1.22	0.000
212.45	29.480	5.601	40.87		10.329	10.374	-329.24		-1.22	0.000
212.73	29.510	6.238	40.84		10.335	10.384	-342.62		-1.22	0.000
213.01	29.533	6.863	40.82		10.337	10.389	-346.29		-1.22	0.000
213.29	29.569	7.452	40.78		10.338	10.391	-322.47		-1.22	0.000
213.57	29.608	8.041	40.74		10.339	10.391	-302.96		-1.22	0.000
213.85	29.650	8.606	40.70		10.345	10.393	-274.40		-1.22	0.000
214.12	29.680	9.135	40.67		10.362	10.400	-272.88		-1.22	0.000
214.39	29.726	9.651	40.62		10.379	10.410	-277.52		-1.22	0.000
214.67	29.774	10.120	40.58		10.399	10.422	-271.93		-1.22	0.000
214.95	29.827	10.577	40.52		10.417	10.435	-223.10		-1.22	0.000
215.23	29.862	10.998	40.49		10.440	10.439	-201.31		-1.22	0.000
215.51	29.918	11.394	40.43		10.432	10.460	-155.12		-1.22	0.000
215.78	29.976	11.755	40.37		10.456	10.482	-137.33		-1.22	0.000
216.06	30.036	12.091	40.31		10.480	10.507	-111.19		-1.22	0.000
216.34	30.098	12.392	40.25		10.502	10.529	-96.88		-1.22	0.000
216.62	30.139	12.656	40.21		10.526	10.554	-76.35		-1.22	0.000
216.89	30.204	12.885	40.15		10.548	10.576	-60.67		-1.22	0.000
217.17	30.267	13.077	40.08		10.573	10.599	-26.73		-1.22	0.000
217.45	30.333	13.233	40.02		10.597	10.625	-8.05		-1.22	0.000
217.72	30.378	13.365	39.97		10.621	10.648	-13.26		-1.22	0.000
217.99	30.445	13.450	39.91		10.647	10.671	-40.43		-1.22	0.000
218.28	30.513	13.498	39.84		10.674	10.696	-60.06		-1.22	0.000
218.55	30.580	13.510	39.77		10.699	10.722	-119.52		-1.22	0.000
218.82	30.624	13.486	39.73		10.732	10.749	-149.05		-1.22	0.000
219.10	30.692	13.425	39.66		10.758	10.758	-193.76		-1.22	0.000
219.38	30.759	13.329	39.59		10.779	10.783	-195.85		-1.22	0.000
219.66	30.824	13.197	39.53		10.811	10.812	-161.39		-1.22	0.000
219.94	30.869	13.017	39.48		10.848	10.839	-125.95		-1.22	0.000
220.22	30.933	12.825	39.42		10.885	10.871	-75.57		-1.22	0.000
220.49	30.997	12.572	39.35		10.920	10.907	-58.38		-1.22	0.000
220.77	31.059	12.296	39.29		10.959	10.947	-54.87		-1.22	0.000
221.03	31.100	11.995	39.25		10.994	10.987	-46.96		-1.22	0.000
221.31	31.159	11.659	39.19		11.026	11.026	-26.08		-1.22	0.000
221.58	31.215	11.298	39.13		11.059	11.059	1.52		-1.22	0.000
221.86	31.272	10.889	39.08		11.076	11.094	50.82		-1.22	0.000
222.12	31.306	10.469	39.04		11.108	11.129	54.23		-1.22	0.000
222.40	31.359	10.012	38.99		11.140	11.147	12.20		-1.22	0.000
222.67	31.406	9.543	38.94		11.167	11.176	-14.98		-1.22	0.000
222.94	31.438	9.038	38.91		11.193	11.205	-52.58		-1.22	0.000
223.22	31.482	8.510	38.87		11.214	11.231	-54.07		-1.22	0.000
223.49	31.522	7.969	38.83		11.236	11.254	-17.36		-1.22	0.000
223.76	31.549	7.392	38.80		11.260	11.277	5.44		-1.22	0.000
224.04	31.585	6.791	38.77		11.278	11.301	56.46		-1.22	0.000
224.32	31.617	6.190	38.73		11.266	11.320	73.12		-1.22	0.000
224.59	31.644	5.553	38.71		11.285	11.336	60.63		-1.22	0.000
224.86	31.662	4.904	38.69		11.297	11.353	41.98		-1.22	0.000
225.13	31.686	4.255	38.66		11.308	11.360	58.33		-1.22	0.000
225.40	31.704	3.594	38.65		11.314	11.373	107.40		-1.22	0.000
225.68	31.717	2.921	38.63		11.322	11.384	112.51		-1.22	0.000
225.95	31.726	2.236	38.62		11.326	11.392	97.27		-1.22	0.000
226.22	31.735	1.550	38.62		11.329	11.401	81.06		-1.22	0.000
226.49	31.737	0.877	38.61		11.328	11.408	38.49		-1.22	0.000
226.76	31.744	0.180	38.61		11.349	11.410	7.86		-1.22	0.000
227.03	31.744	-0.505	38.61		11.347	11.413	-87.67		-1.22	0.000
227.30	31.744	-1.190	38.61		11.343	11.413	-132.02		-1.22	0.000
227.57	31.744	-1.863	38.61		11.340	11.412	-206.08		-1.22	0.000
227.84	31.744	-2.548	38.61		11.335	11.409	-241.82		-1.22	0.000
228.12	31.724	-3.221	38.63		11.330	11.405	-314.84		-1.22	0.000
228.39	31.705	-3.894	38.64		11.326	11.402	-357.00		-1.22	0.000
228.67	31.690	-4.555	38.66		11.320	11.398	-402.82		-1.22	0.000
228.95	31.667	-5.204	38.68		11.310	11.395	-418.08		-1.22	0.000
229.22	31.638	-5.853	38.71		11.296	11.388	-440.14		-1.22	0.000
229.50	31.606	-6.478	38.74		11.285	11.379	-444.88		-1.22	0.000
229.77	31.585	-7.091	38.77		11.278	11.368	-447.19		-1.22	0.000
230.06	31.546	-7.680	38.80		11.278	11.361	-437.86		-1.22	0.000
230.34	31.505	-8.245	38.84		11.276	11.355	-403.50		-1.22	0.000
230.61	31.464	-8.798	38.89		11.271	11.348	-373.69		-1.22	0.000
230.89	31.433	-9.327	38.92		11.260	11.344	-301.11		-1.22	0.000
231.16	31.386	-9.820	38.96		11.238	11.339	-259.12		-1.22	0.000
231.45	31.335	-10.300	39.02		11.216	11.325	-185.66		-1.22	0.000
231.72	31.282	-10.733	39.07		11.191	11.306	-175.00		-1.22	0.000
232.00	31.246	-11.154	39.10		11.168	11.284	-189.28		-1.22	0.000
232.28	31.190	-11.526	39.16		11.142	11.263	-240.45		-1.22	0.000
232.56	31.131	-11.887	39.22		11.115	11.235	-250.51		-1.22	0.000
232.84	31.071	-12.212	39.28		11.081	11.209	-220.48		-1.22	0.000
233.12	31.009	-12.500	39.34		11.054	11.179	-194.94		-1.22	0.000
233.39	30.967	-12.752	39.38		11.024	11.153	-151.98		-1.22	0.000
233.68	30.903	-12.969	39.45		10.994	11.124	-143.88		-1.22	0.000
233.96	30.836	-13.149	39.51		10.965	11.096	-145.72		-1.22	0.000
234.23	30.769	-13.293	39.58		10.938	11.070	-166.16		-1.22	0.000
234.51	30.726	-13.401	39.62		10.909	11.041	-194.40		-1.22	0.000
234.79	30.659	-13.474	39.69		10.878	11.010	-194.68		-1.22	0.000
235.06	30.591	-13.510	39.76		10.848	10.981	-175.73		-1.22	0.000
235.34	30.524	-13.498	39.83		10.822	10.953	-153.38		-1.22	0.000
235.62	30.480	-13.462	39.87		10.794	10.939	-133.27		-1.22	0.000
235.90	30.413	-13.377	39.94		10.763	10.908	-137.73		-1.22	0.000
236.18	30.346	-13.269	40.00		10.733	10.880	-140.70		-1.22	0.000
236.46	30.280	-13.113	40.07		10.694	10.848	-144.43		-1.22	0.000
236.73	30.215	-12.933	40.13		10.689	10.817	-145.83		-1.22	0.000
237.01	30.172	-12.704	40.18		10.649	10.782	-154.71		-1.22	0.000
237.29	30.109	-12.452	40.24		10.611	10.745	-151.30		-1.22	0.000
237.58	30.049	-12.163	40.30		10.574	10.705	-157.01		-1.22	0.000
237.86	29.987	-11.827	40.36		10.538	10.666	-167.11		-1.22	0.000
238.14	29.949	-11.466	40.40		10.504	10.629	-207.50		-1.22	0.000
238.42	29.890	-11.082	40.46		10.469	10.593	-242.05		-1.22	0.000
238.70	29.837	-10.649	40.51		10.436	10.559	-320.13		-1.22	0.000
238.98	29.783	-10.192	40.57		10.404	10.524	-407.13		-1.22	0.000
239.27	29.736	-9.700	40.61		10.373	10.490	-457.51		-1.22	0.000
239.55	29.704	-9.195	40.65		10.348	10.462	-550.00		-1.22	0.000
239.82	29.659	-8.654	40.69		10.318	10.433	-578.88		-1.22	0.000
240.10	29.618	-8.089	40.73		10.292	10.406	-589.12		-1.22	0.000
240.38	29.580	-7.512	40.77		10.269	10.381	-572.21		-1.22	0.000
240.67	29.544	-6.923	40.81		10.247	10.360	-503.94		-1.22	0.000
240.94	29.519	-6.298	40.83		10.230	10.353	-454.80		-1.22	0.000
241.22	29.491	-5.649	40.86		10.216	10.332	-358.83		-1.22	0.000
241.49	29.465	-5.012	40.88		10.227	10.311	-321.64		-1.22	0.000
241.77	29.446	-4.339	40.90		10.216	10.297	-259.88		-1.22	0.000
242.05	29.428	-3.678	40.92		10.203	10.281	-191.88		-1.22	0.000
242.32	29.418	-2.993	40.93		10.196	10.268	-149.25		-1.22	0.000
242.59	29.405	-2.296	40.94		10.187	10.255	-107.38		-1.22	0.000
242.87	29.395	-1.611	40.96		10.184	10.247	-97.80		-1.22	0.000
243.14	29.387	-0.913	40.96		10.182	10.243	-112.09		-1.22	0.000
243.42	29.386	-0.228	40.96		10.181	10.240	-132.67		-1.22	0.000
243.69	29.386	0.469	40.96		10.182	10.236	-208.66		-1.22	0.000
243.96	29.386	1.166	40.96		10.182	10.231	-253.70		-1.22	0.000
244.23	29.386	1.851	40.96		10.165	10.231	-283.46		-1.22	0.000
244.50	29.387	2.524	40.96		10.165	10.230	-278.73		-1.22	0.000
244.77	29.408	3.197	40.94		10.165	10.234	-261.18		-1.22	0.000
245.04	29.418	3.870	40.93		10.170	10.238	-267.59		-1.22	0.000
245.32	29.441	4.531	40.91		10.175	10.239	-281.09		-1.22	0.000
245.60	29.465	5.168	40.88		10.177	10.239	-274.86		-1.22	0.000
245.87	29.482	5.817	40.87		10.183	10.240	-237.30		-1.22	0.000
246.15	29.513	6.442	40.84		10.185	10.244	-198.84		-1.22	0.000
246.43	29.546	7.055	40.80		10.189	10.249	-95.75		-1.22	0.000
246.70	29.585	7.644	40.77		10.190	10.251	-46.46		-1.22	0.000
246.97	29.624	8.221	40.73		10.193	10.254	18.75		-1.22	0.000
247.25	29.651	8.762	40.70		10.202	10.256	35.30		-1.22	0.000
247.52	29.696	9.279	40.65		10.217	10.261	43.98		-1.22	0.000
247.79	29.745	9.772	40.61		10.235	10.271	51.28		-1.22	0.000
248.07	29.780	10.228	40.57		10.250	10.284	87.04		-1.22	0.000
248.34	29.831	10.673	40.52		10.269	10.299	87.59		-1.22	0.000
248.62	29.885	11.094	40.47		10.291	10.314	62.44		-1.22	0.000
248.89	29.941	11.478	40.41		10.313	10.335	39.19		-1.22	0.000
249.16	29.981	11.827	40.37		10.336	10.355	6.85		-1.22	0.000
249.43	30.041	12.151	40.31		10.363	10.381	-0.35		-1.22	0.000
249.71	30.103	12.428	40.25		10.388	10.405	20.96		-1.22	0.000
249.97	30.144	12.680	40.21		10.413	10.418	48.23		-1.22	0.000
250.24	30.209	12.909	40.14		10.438	10.443	65.82		-1.22	0.000
250.52	30.274	13.089	40.08		10.462	10.468	58.94		-1.22	0.000
250.79	30.318	13.245	40.03		10.486	10.493	6.20		-1.22	0.000
251.06	30.383	13.365	39.97		10.509	10.518	-30.13		-1.22	0.000
251.34	30.450	13.450	39.90		10.535	10.544	-54.72		-1.22	0.000
251.61	30.518	13.498	39.83		10.530	10.571	-56.32		-1.22	0.000
251.89	30.563	13.510	39.79		10.554	10.592	-49.35		-1.22	0.000
252.16	30.631	13.486	39.72		10.581	10.617	-55.87		-1.22	0.000
252.43	30.697	13.425	39.65		10.608	10.631	-96.95		-1.22	0.000
252.71	30.764	13.329	39.59		10.634	10.658	-131.38		-1.22	0.000
252.98	30.810	13.197	39.54		10.667	10.685	-217.39		-1.22	0.000
253.26	30.874	13.029	39.48		10.707	10.711	-279.26		-1.22	0.000
253.54	30.939	12.825	39.41		10.746	10.743	-301.74		-1.22	0.000
253.82	31.001	12.584	39.35		10.786	10.783	-327.87		-1.22	0.000
254.09	31.044	12.308	39.31		10.824	10.823	-334.92		-1.22	0.000
254.36	31.105	12.007	39.24		10.858	10.860	-339.61		-1.22	0.000
254.65	31.163	11.671	39.19		10.884	10.896	-346.13		-1.22	0.000
254.93	31.221	11.298	39.13		10.915	10.930	-365.68		-1.22	0.000
255.21	31.258	10.889	39.09		10.946	10.964	-373.91		-1.22	0.000
255.49	31.312	10.445	39.04		10.979	11.000	-354.57		-1.22	0.000
255.76	31.362	9.988	38.99		11.005	11.030	-332.87		-1.22	0.000
256.05	31.412	9.483	38.94		11.030	11.059	-271.85		-1.22	0.000
256.32	31.442	8.978	38.91		11.055	11.087	-245.50		-1.22	0.000
256.60	31.485	8.438	38.87		11.073	11.114	-183.98		-1.22	0.000
256.88	31.526	7.873	38.82		11.094	11.125	-129.89		-1.22	0.000
257.16	31.564	7.284	38.79		11.115	11.147	-105.82		-1.22	0.000
257.44	31.597	6.671	38.75		11.132	11.171	-64.17		-1.22	0.000
257.71	31.619	6.046	38.73		11.150	11.190	-56.34		-1.22	0.000
257.98	31.646	5.409	38.70		11.164	11.212	-41.28		-1.22	0.000
258.26	31.671	4.772	38.68		11.188	11.230	-28.59		-1.22	0.000
258.52	31.683	4.111	38.67		11.200	11.245	6.58		-1.22	0.000
258.80	31.701	3.438	38.65		11.207	11.256	27.59		-1.22	0.000
259.06	31.719	2.776	38.63		11.215	11.268	57.31		-1.22	0.000
259.33	31.727	2.091	38.62		11.220	11.275	61.23		-1.22	0.000
259.60	31.736	1.418	38.61		11.223	11.279	41.21		-1.22	0.000
259.87	31.738	0.745	38.61		11.223	11.283	17.18		-1.22	0.000
260.14	31.740	0.060	38.61		11.222	11.287	-37.54		-1.22	0.000
260.41	31.740	-0.613	38.61		11.199	11.287	-44.28		-1.22	0.000
260.68	31.740	-1.298	38.61		11.197	11.286	-22.57		-1.22	0.000
260.95	31.740	-1.995	38.61		11.195	11.285	-12.01		-1.22	0.000
261.22	31.738	-2.668	38.61		11.193	11.284	-25.31		-1.22	0.000
261.50	31.719	-3.341	38.63		11.191	11.281	-42.42		-1.22	0.000
261.77	31.700	-4.002	38.65		11.188	11.276	-70.91		-1.22	0.000
262.05	31.687	-4.663	38.66		11.187	11.275	-74.59		-1.22	0.000
262.33	31.662	-5.325	38.69		11.182	11.270	-37.02		-1.22	0.000
262.60	31.632	-5.962	38.72		11.168	11.265	-4.02		-1.22	0.000
262.87	31.601	-6.587	38.75		11.170	11.258	71.34		-1.22	0.000
263.15	31.578	-7.188	38.77		11.165	11.250	93.49		-1.22	0.000
263.44	31.541	-7.764	38.81		11.160	11.243	71.19		-1.22	0.000
263.71	31.500	-8.341	38.85		11.157	11.235	35.33		-1.22	0.000
263.99	31.456	-8.894	38.89		11.152	11.232	-54.69		-1.22	0.000
264.27	31.410	-9.399	38.94		11.135	11.228	-96.19		-1.22	0.000
264.55	31.380	-9.892	38.97		11.113	11.220	-167.13		-1.22	0.000
264.83	31.327	-10.373	39.02		11.088	11.204	-190.93		-1.22	0.000
265.11	31.276	-10.817	39.07		11.063	11.185	-222.59		-1.22	0.000
265.39	31.221	-11.226	39.13		11.035	11.164	-234.96		-1.22	0.000
265.68	31.182	-11.611	39.17		11.009	11.141	-234.29		-1.22	0.000
265.95	31.123	-11.959	39.23		10.982	11.112	-220.15		-1.22	0.000
266.24	31.063	-12.272	39.29		10.953	11.088	-198.60		-1.22	0.000
266.52	31.001	-12.548	39.35		10.926	11.061	-138.72		-1.22	0.000
266.80	30.937	-12.800	39.41		10.895	11.047	-95.57		-1.22	0.000
267.07	30.895	-13.017	39.46		10.867	11.019	-10.75		-1.22	0.000
267.35	30.828	-13.185	39.52		10.870	10.988	27.97		-1.22	0.000
267.62	30.763	-13.317	39.59		10.846	10.958	96.18		-1.22	0.000
267.90	30.696	-13.413	39.65		10.821	10.932	114.39		-1.22	0.000
268.17	30.650	-13.486	39.70		10.790	10.905	142.20		-1.22	0.000
268.45	30.582	-13.510	39.77		10.759	10.875	131.22		-1.22	0.000
268.73	30.515	-13.498	39.83		10.733	10.845	119.27		-1.22	0.000
269.01	30.449	-13.450	39.90		10.707	10.818	90.80		-1.22	0.000
269.28	30.404	-13.365	39.95		10.676	10.791	83.06		-1.22	0.000
269.56	30.337	-13.245	40.01		10.646	10.760	66.05		-1.22	0.000
269.82	30.271	-13.089	40.08		10.610	10.730	50.00		-1.22	0.000
270.10	30.208	-12.897	40.14		10.564	10.718	12.60		-1.22	0.000
270.38	30.164	-12.680	40.19		10.534	10.681	-15.42		-1.22	0.000
270.65	30.101	-12.416	40.25		10.497	10.645	-47.43		-1.22	0.000
270.93	30.039	-12.127	40.31		10.461	10.608	-60.04		-1.22	0.000
271.21	29.980	-11.803	40.37		10.430	10.571	-81.56		-1.22	0.000
271.49	29.940	-11.442	40.41		10.397	10.534	-97.71		-1.22	0.000
271.76	29.885	-11.046	40.47		10.368	10.499	-140.02		-1.22	0.000
272.04	29.831	-10.625	40.52		10.333	10.466	-163.49		-1.22	0.000
272.32	29.778	-10.180	40.57		10.304	10.435	-191.29		-1.22	0.000
272.60	29.745	-9.700	40.61		10.273	10.398	-190.94		-1.22	0.000
272.88	29.698	-9.183	40.65		10.247	10.366	-154.88		-1.22	0.000
273.15	29.655	-8.654	40.69		10.225	10.333	-111.45		-1.22	0.000
273.43	29.613	-8.101	40.74		10.203	10.306	-95.52		-1.22	0.000
273.71	29.586	-7.524	40.76		10.183	10.282	-74.67		-1.22	0.000
273.99	29.550	-6.935	40.80		10.164	10.257	-59.80		-1.22	0.000
274.26	29.518	-6.310	40.83		10.145	10.247	-9.34		-1.22	0.000
274.54	29.490	-5.673	40.86		10.134	10.230	29.03		-1.22	0.000
274.82	29.472	-5.036	40.88		10.118	10.215	104.62		-1.22	0.000
275.09	29.450	-4.375	40.90		10.107	10.201	121.75		-1.22	0.000
275.36	29.430	-3.702	40.92		10.095	10.188	133.03		-1.22	0.000
275.64	29.413	-3.017	40.94		10.086	10.176	134.37		-1.22	0.000
275.91	29.404	-2.344	40.95		10.077	10.164	140.08		-1.22	0.000
276.19	29.398	-1.659	40.95		10.076	10.154	144.97		-1.22	0.000
276.46	29.390	-0.950	40.96		10.070	10.147	131.03		-1.22	0.000
276.73	29.389	-0.252	40.96		10.091	10.144	110.95		-1.22	0.000
277.00	29.389	0.433	40.96		10.091	10.142	52.36		-1.22	0.000
277.26	29.389	1.118	40.96		10.089	10.139	23.95		-1.22	0.000
277.53	29.389	1.803	40.96		10.092	10.140	-10.85		-1.22	0.000
277.80	29.389	2.452	40.96		10.093	10.141	-3.50		-1.22	0.000
278.07	29.403	3.125	40.95		10.093	10.142	39.53		-1.22	0.000
278.34	29.422	3.786	40.93		10.097	10.142	59.79		-1.22	0.000
278.62	29.433	4.435	40.92		10.077	10.144	94.86		-1.22	0.000
278.89	29.458	5.096	40.89		10.087	10.145	87.67		-1.22	0.000
279.16	29.486	5.733	40.86		10.091	10.147	45.93		-1.22	0.000
279.43	29.517	6.358	40.83		10.091	10.150	23.19		-1.22	0.000
279.71	29.540	6.959	40.81		10.093	10.151	-15.59		-1.22	0.000
279.98	29.576	7.536	40.77		10.094	10.152	-35.94		-1.22	0.000
280.26	29.615	8.113	40.73		10.097	10.154	-82.01		-1.22	0.000
280.54	29.642	8.654	40.71		10.112	10.156	-104.34		-1.22	0.000
280.81	29.690	9.183	40.66		10.131	10.159	-137.08		-1.22	0.000
281.09	29.736	9.688	40.61		10.147	10.169	-152.16		-1.22	0.000
281.36	29.786	10.168	40.56		10.153	10.184	-177.29		-1.22	0.000
281.64	29.821	10.613	40.53		10.174	10.202	-188.84		-1.22	0.000
281.92	29.874	11.034	40.48		10.193	10.220	-141.00		-1.22	0.000
282.20	29.931	11.430	40.42		10.214	10.242	-42.28		-1.22	0.000
282.47	29.989	11.791	40.36		10.236	10.266	17.19		-1.22	0.000
282.75	30.027	12.127	40.32		10.259	10.288	132.98		-1.22	0.000
283.02	30.089	12.416	40.26		10.282	10.301	168.45		-1.22	0.000
283.30	30.153	12.668	40.20		10.305	10.323	162.69		-1.22	0.000
283.56	30.215	12.897	40.13		10.329	10.347	135.57		-1.22	0.000
283.84	30.259	13.089	40.09		10.352	10.374	95.25		-1.22	0.000
284.12	30.324	13.233	40.03		10.376	10.400	83.22		-1.22	0.000
284.39	30.392	13.365	39.96		10.407	10.424	57.36		-1.22	0.000
284.66	30.458	13.450	39.89		10.432	10.447	36.55		-1.22	0.000
284.94	30.503	13.498	39.85		10.460	10.469	-24.56		-1.22	0.000
285.22	30.571	13.510	39.78		10.484	10.496	-52.18		-1.22	0.000
285.50	30.640	13.486	39.71		10.511	10.524	-91.67		-1.22	0.000
285.78	30.705	13.425	39.64		10.538	10.548	-103.61		-1.22	0.000
286.05	30.750	13.329	39.60		10.563	10.573	-58.50		-1.22	0.000
286.32	30.817	13.185	39.53		10.598	10.585	-18.03		-1.22	0.000
286.59	30.882	13.029	39.47		10.640	10.615	56.56		-1.22	0.000
286.86	30.926	12.825	39.42		10.675	10.649	71.35		-1.22	0.000
287.13	30.989	12.584	39.36		10.684	10.686	87.64		-1.22	0.000
287.42	31.050	12.320	39.30		10.721	10.723	83.98		-1.22	0.000
287.68	31.112	12.019	39.24		10.753	10.763	61.51		-1.22	0.000
287.96	31.151	11.683	39.20		10.793	10.799	36.31		-1.22	0.000
288.23	31.210	11.322	39.14		10.826	10.836	-40.74		-1.22	0.000
288.51	31.265	10.925	39.08		10.857	10.873	-84.82		-1.22	0.000
288.79	31.319	10.505	39.03		10.891	10.906	-159.81		-1.22	0.000
289.06	31.353	10.036	39.00		10.920	10.918	-198.44		-1.22	0.000
289.34	31.400	9.555	38.95		10.947	10.948	-273.07		-1.22	0.000
289.61	31.446	9.038	38.90		10.974	10.977	-327.84		-1.22	0.000
289.89	31.490	8.510	38.86		10.997	11.005	-343.65		-1.22	0.000
290.16	31.518	7.957	38.83		11.002	11.028	-329.28		-1.22	0.000
290.44	31.556	7.380	38.79		11.022	11.051	-303.19		-1.22	0.000
290.71	31.592	6.779	38.76		11.041	11.075	-242.96		-1.22	0.000
290.99	31.613	6.154	38.74		11.060	11.097	-213.60		-1.22	0.000
291.27	31.640	5.541	38.71		11.071	11.118	-147.47		-1.22	0.000
291.54	31.667	4.892	38.68		11.086	11.136	-119.03		-1.22	0.000
291.82	31.690	4.219	38.66		11.095	11.152	-74.24		-1.22	0.000
292.09	31.700	3.558	38.65		11.104	11.163	-45.35		-1.22	0.000
292.36	31.715	2.873	38.63		11.111	11.171	6.65		-1.22	0.000
292.63	31.730	2.187	38.62		11.115	11.182	25.77		-1.22	0.000
292.89	31.733	1.502	38.62		11.137	11.190	-0.29		-1.22	0.000
293.17	31.736	0.829	38.61		11.137	11.196	-32.12		-1.22	0.000
293.43	31.744	0.156	38.61		11.139	11.199	-89.77		-1.22	0.000
293.70	31.744	-0.529	38.61		11.138	11.201	-103.22		-1.22	0.000
293.97	31.744	-1.202	38.61		11.133	11.201	-95.79		-1.22	0.000
294.25	31.744	-1.887	38.61		11.130	11.200	-94.10		-1.22	0.000
294.52	31.737	-2.560	38.61		11.129	11.195	-99.89		-1.22	0.000
294.80	31.727	-3.245	38.62		11.126	11.193	-96.19		-1.22	0.000
295.07	31.708	-3.930	38.64		11.108	11.190	-81.09		-1.22	0.000
295.35	31.685	-4.591	38.67		11.104	11.188	-67.39		-1.22	0.000
295.63	31.659	-5.240	38.69		11.101	11.186	-45.69		-1.22	0.000
295.90	31.644	-5.877	38.71		11.090	11.181	-34.09		-1.22	0.000
296.18	31.610	-6.502	38.74		11.080	11.175	-7.44		-1.22	0.000
296.45	31.576	-7.115	38.77		11.076	11.166	1.84		-1.22	0.000
296.72	31.540	-7.716	38.81		11.077	11.160	13.95		-1.22	0.000
296.99	31.513	-8.257	38.84		11.074	11.155	3.55		-1.22	0.000
297.27	31.468	-8.798	38.88		11.068	11.151	-18.80		-1.22	0.000
297.55	31.424	-9.303	38.93		11.055	11.146	-37.52		-1.22	0.000
297.82	31.392	-9.820	38.96		11.041	11.137	-76.91		-1.22	0.000
298.10	31.342	-10.276	39.01		11.018	11.128	-91.41		-1.22	0.000
298.38	31.291	-10.721	39.06		10.990	11.107	-95.91		-1.22	0.000
298.66	31.233	-11.142	39.12		10.967	11.086	-63.78		-1.22	0.000
298.94	31.178	-11.526	39.17		10.941	11.062	-50.41		-1.22	0.000
299.21	31.141	-11.887	39.21		10.915	11.037	-17.30		-1.22	0.000
299.48	31.080	-12.200	39.27		10.887	11.012	-8.71		-1.22	0.000
299.76	31.018	-12.476	39.33		10.854	10.988	12.06		-1.22	0.000
300.03	30.977	-12.728	39.37		10.830	10.964	22.29		-1.22	0.000
300.31	30.913	-12.945	39.44		10.802	10.936	54.88		-1.22	0.000
300.59	30.846	-13.125	39.50		10.775	10.912	66.60		-1.22	0.000
300.86	30.780	-13.281	39.57		10.779	10.880	79.67		-1.22	0.000
301.14	30.736	-13.389	39.61		10.753	10.852	79.74		-1.22	0.000
301.42	30.668	-13.462	39.68		10.727	10.827	73.64		-1.22	0.000
301.70	30.600	-13.498	39.75		10.699	10.809	71.71		-1.22	0.000
301.98	30.533	-13.498	39.82		10.667	10.782	70.07		-1.22	0.000
302.25	30.467	-13.462	39.88		10.639	10.753	69.65		-1.22	0.000
302.53	30.422	-13.389	39.93		10.615	10.725	83.95		-1.22	0.000
302.80	30.355	-13.281	39.99		10.585	10.699	97.29		-1.22	0.000
303.09	30.289	-13.137	40.06		10.554	10.668	133.42		-1.22	0.000
303.36	30.223	-12.957	40.13		10.514	10.637	151.74		-1.22	0.000
303.63	30.180	-12.740	40.17		10.470	10.606	153.91		-1.22	0.000
303.92	30.118	-12.488	40.23		10.435	10.570	142.93		-1.22	0.000
304.19	30.056	-12.212	40.29		10.399	10.531	131.88		-1.22	0.000
304.47	29.996	-11.887	40.35		10.377	10.494	98.58		-1.22	0.000
304.74	29.956	-11.538	40.39		10.343	10.458	84.63		-1.22	0.000
305.02	29.899	-11.154	40.45		10.308	10.425	82.26		-1.22	0.000
305.29	29.845	-10.745	40.51		10.285	10.396	80.66		-1.22	0.000
305.57	29.794	-10.313	40.56		10.250	10.379	77.49		-1.22	0.000
305.84	29.759	-9.844	40.59		10.229	10.349	73.49		-1.22	0.000
306.12	29.712	-9.339	40.64		10.202	10.319	71.84		-1.22	0.000
306.40	29.667	-8.834	40.68		10.176	10.288	65.09		-1.22	0.000
306.67	29.623	-8.281	40.73		10.155	10.259	11.42		-1.22	0.000
306.94	29.598	-7.716	40.75		10.131	10.235	-27.87		-1.22	0.000
307.23	29.559	-7.127	40.79		10.115	10.210	-113.35		-1.22	0.000
307.50	29.526	-6.526	40.82		10.087	10.187	-155.20		-1.22	0.000
307.78	29.496	-5.901	40.85		10.068	10.166	-212.39		-1.22	0.000
308.05	29.476	-5.264	40.87		10.058	10.146	-237.94		-1.22	0.000
308.33	29.454	-4.603	40.90		10.045	10.132	-301.27		-1.22	0.000
308.60	29.436	-3.942	40.91		10.033	10.116	-355.52		-1.22	0.000
308.88	29.417	-3.257	40.93		10.024	10.110	-371.82		-1.22	0.000
309.16	29.408	-2.572	40.94		10.021	10.103	-365.63		-1.22	0.000
309.44	29.399	-1.875	40.95		10.011	10.090	-333.28		-1.22	0.000
309.71	29.391	-1.166	40.96		10.009	10.087	-261.94		-1.22	0.000
309.98	29.389	-0.469	40.96		10.012	10.085	-222.38		-1.22	0.000
310.25	29.387	0.204	40.96		10.006	10.083	-121.43		-1.22	0.000
310.53	29.387	0.901	40.96		10.038	10.080	-78.07		-1.22	0.000
310.79	29.387	1.599	40.96		10.025	10.080	-24.56		-1.22	0.000
311.06	29.387	2.284	40.96		10.034	10.080	-1.68		-1.22	0.000
311.33	29.395	2.957	40.96		10.034	10.080	40.12		-1.22	0.000
311.60	29.415	3.606	40.93		10.031	10.080	54.11		-1.22	0.000
311.87	29.427	4.267	40.92		10.037	10.081	66.80		-1.22	0.000
312.14	29.451	4.904	40.90		10.042	10.083	67.24		-1.22	0.000
312.42	29.480	5.553	40.87		10.040	10.085	75.70		-1.22	0.000
312.69	29.498	6.178	40.85		10.032	10.088	85.25		-1.22	0.000
312.96	29.532	6.779	40.82		10.033	10.089	83.10		-1.22	0.000
313.24	29.565	7.368	40.78		10.037	10.091	72.75		-1.22	0.000
313.50	29.607	7.945	40.74		10.038	10.092	54.38		-1.22	0.000
313.77	29.632	8.498	40.72		10.046	10.095	56.71		-1.22	0.000
314.05	29.676	9.014	40.67		10.063	10.096	71.74		-1.22	0.000
314.32	29.723	9.519	40.63		10.084	10.104	83.22		-1.22	0.000
314.60	29.757	10.000	40.59		10.098	10.115	96.30		-1.22	0.000
314.87	29.806	10.457	40.54		10.124	10.133	91.86		-1.22	0.000
315.15	29.862	10.889	40.49		10.128	10.149	57.37		-1.22	0.000
315.42	29.915	11.286	40.43		10.147	10.168	30.53		-1.22	0.000
315.69	29.954	11.659	40.40		10.172	10.191	0.38		-1.22	0.000
315.96	30.014	11.995	40.34		10.190	10.210	1.22		-1.22	0.000
316.23	30.074	12.284	40.28		10.217	10.234	1.06		-1.22	0.000
316.50	30.115	12.560	40.23		10.238	10.257	0.76		-1.22	0.000
316.77	30.178	12.800	40.17		10.262	10.274	-15.52		-1.22	0.000
317.04	30.242	13.005	40.11		10.285	10.300	-26.88		-1.22	0.000
317.32	30.310	13.173	40.04		10.314	10.324	-82.39		-1.22	0.000
317.61	30.353	13.305	40.00		10.341	10.348	-119.25		-1.22	0.000
317.88	30.421	13.413	39.93		10.362	10.371	-193.89		-1.22	0.000
318.16	30.486	13.474	39.86		10.391	10.397	-209.65		-1.22	0.000
318.44	30.554	13.510	39.80		10.416	10.422	-194.70		-1.22	0.000
318.71	30.599	13.498	39.75		10.442	10.446	-178.09		-1.22	0.000
318.99	30.665	13.450	39.68		10.469	10.470	-142.81		-1.22	0.000
319.27	30.733	13.365	39.62		10.491	10.496	-131.37		-1.22	0.000
319.55	30.800	13.257	39.55		10.527	10.523	-117.72		-1.22	0.000
319.82	30.844	13.101	39.51		10.564	10.550	-94.37		-1.22	0.000
320.10	30.910	12.909	39.44		10.601	10.586	-67.53		-1.22	0.000
320.38	30.974	12.680	39.38		10.641	10.623	19.50		-1.22	0.000
320.64	31.035	12.416	39.32		10.642	10.644	74.55		-1.22	0.000
320.91	31.077	12.127	39.27		10.681	10.681	145.99		-1.22	0.000
321.19	31.137	11.815	39.21		10.716	10.719	147.56		-1.22	0.000
321.47	31.195	11.466	39.16		10.751	10.757	99.68		-1.22	0.000
321.74	31.232	11.070	39.12		10.784	10.789	73.41		-1.22	0.000
322.01	31.286	10.661	39.06		10.819	10.826	36.21		-1.22	0.000
322.28	31.340	10.216	39.01		10.846	10.860	26.03		-1.22	0.000
322.56	31.387	9.748	38.96		10.876	10.892	-14.20		-1.22	0.000
322.83	31.421	9.255	38.93		10.906	10.920	-48.56		-1.22	0.000
323.11	31.465	8.738	38.88		10.928	10.946	-141.76		-1.22	0.000
323.39	31.508	8.185	38.84		10.933	10.957	-183.16		-1.22	0.000
323.66	31.546	7.608	38.80		10.955	10.982	-237.29		-1.22	0.000
323.94	31.572	7.031	38.78		10.979	11.003	-234.13		-1.22	0.000
324.21	31.604	6.418	38.75		10.994	11.027	-211.16		-1.22	0.000
324.49	31.635	5.793	38.72		11.008	11.049	-202.59		-1.22	0.000
324.77	31.662	5.156	38.69		11.020	11.063	-227.13		-1.22	0.000
325.05	31.677	4.495	38.67		11.032	11.080	-247.93		-1.22	0.000
325.34	31.695	3.810	38.66		11.042	11.096	-286.61		-1.22	0.000
325.61	31.710	3.113	38.64		11.053	11.112	-287.71		-1.22	0.000
325.88	31.723	2.416	38.63		11.056	11.122	-280.54		-1.22	0.000
326.16	31.731	1.719	38.62		11.060	11.132	-264.63		-1.22	0.000
326.43	31.740	1.034	38.61		11.062	11.138	-270.33		-1.22	0.000
326.70	31.740	0.337	38.61		11.080	11.141	-292.82		-1.22	0.000
326.97	31.741	-0.349	38.61		11.078	11.141	-304.47		-1.22	0.000
327.25	31.741	-1.046	38.61		11.076	11.141	-290.42		-1.22	0.000
327.52	31.741	-1.731	38.61		11.075	11.141	-279.86		-1.22	0.000
327.79	31.741	-2.416	38.61		11.070	11.138	-260.29		-1.22	0.000
328.07	31.732	-3.101	38.62		11.071	11.132	-257.36		-1.22	0.000
328.35	31.715	-3.762	38.63		11.068	11.128	-258.44		-1.22	0.000
328.62	31.690	-4.447	38.66		11.061	11.126	-249.94		-1.22	0.000
328.90	31.667	-5.096	38.68		11.057	11.124	-227.59		-1.22	0.000
329.18	31.649	-5.745	38.70		11.047	11.122	-220.96		-1.22	0.000
329.46	31.618	-6.370	38.73		11.027	11.117	-218.07		-1.22	0.000
329.73	31.583	-6.995	38.77		11.024	11.110	-220.95		-1.22	0.000
330.01	31.546	-7.584	38.80		11.021	11.099	-208.27		-1.22	0.000
330.29	31.508	-8.161	38.84		11.019	11.095	-193.79		-1.22	0.000
330.57	31.480	-8.714	38.87		11.017	11.094	-127.25		-1.22	0.000
330.84	31.433	-9.243	38.92		11.005	11.093	-86.07		-1.22	0.000
331.12	31.386	-9.748	38.96		10.985	11.090	9.72		-1.22	0.000
331.40	31.336	-10.216	39.01		10.965	11.075	74.55		-1.22	0.000
331.68	31.303	-10.661	39.05		10.942	11.055	98.31		-1.22	0.000
331.95	31.246	-11.082	39.10		10.916	11.037	147.18		-1.22	0.000
332.23	31.191	-11.466	39.16		10.897	11.010	171.87		-1.22	0.000
332.51	31.132	-11.827	39.22		10.872	10.986	193.48		-1.22	0.000
332.78	31.092	-12.151	39.26		10.850	10.966	191.23		-1.22	0.000
333.05	31.030	-12.440	39.32		10.822	10.941	141.34		-1.22	0.000
333.33	30.969	-12.692	39.38		10.792	10.913	103.11		-1.22	0.000
333.60	30.904	-12.921	39.45		10.761	10.882	15.88		-1.22	0.000
333.88	30.860	-13.101	39.49		10.734	10.852	-24.49		-1.22	0.000
334.15	30.795	-13.257	39.56		10.706	10.842	-61.11		-1.22	0.000
334.43	30.728	-13.377	39.62		10.679	10.813	-66.63		-1.22	0.000
334.71	30.662	-13.450	39.69		10.654	10.783	-80.48		-1.22	0.000
334.98	30.615	-13.498	39.73		10.624	10.754	-96.53		-1.22	0.000
335.27	30.549	-13.510	39.80		10.595	10.733	-110.08		-1.22	0.000
335.55	30.481	-13.474	39.87		10.571	10.707	-109.98		-1.22	0.000
335.83	30.414	-13.401	39.94		10.541	10.676	-126.45		-1.22	0.000
336.11	30.369	-13.305	39.98		10.514	10.648	-149.85		-1.22	0.000
336.40	30.304	-13.161	40.05		10.480	10.622	-151.36		-1.22	0.000
336.68	30.237	-12.981	40.11		10.476	10.596	-139.11		-1.22	0.000
336.96	30.173	-12.764	40.18		10.440	10.560	-136.89		-1.22	0.000
337.24	30.110	-12.512	40.24		10.402	10.521	-156.18		-1.22	0.000
337.51	30.069	-12.224	40.28		10.370	10.482	-169.18		-1.22	0.000
337.79	30.008	-11.899	40.34		10.338	10.442	-170.81		-1.22	0.000
338.07	29.951	-11.550	40.40		10.304	10.412	-165.33		-1.22	0.000
338.35	29.894	-11.166	40.46		10.269	10.377	-155.23		-1.22	0.000
338.62	29.837	-10.757	40.51		10.237	10.347	-141.98		-1.22	0.000
338.90	29.803	-10.313	40.55		10.206	10.317	-70.12		-1.22	0.000
339.18	29.753	-9.844	40.60		10.177	10.302	17.30		-1.22	0.000
339.46	29.705	-9.339	40.64		10.149	10.268	51.07		-1.22	0.000
339.74	29.660	-8.822	40.69		10.124	10.238	92.57		-1.22	0.000
340.01	29.630	-8.269	40.72		10.098	10.211	109.55		-1.22	0.000
340.29	29.591	-7.704	40.76		10.088	10.188	140.43		-1.22	0.000
340.56	29.554	-7.115	40.80		10.067	10.167	150.08		-1.22	0.000
340.84	29.521	-6.502	40.83		10.054	10.141	137.70		-1.22	0.000
341.12	29.500	-5.889	40.85		10.038	10.119	131.16		-1.22	0.000
341.40	29.474	-5.240	40.88		10.023	10.104	107.20		-1.22	0.000
341.67	29.449	-4.579	40.90		10.012	10.088	92.28		-1.22	0.000
341.95	29.430	-3.906	40.92		10.004	10.072	45.22		-1.22	0.000
342.22	29.419	-3.233	40.93		9.995	10.061	8.04		-1.22	0.000
342.50	29.404	-2.536	40.95		9.995	10.052	-71.06		-1.22	0.000
342.77	29.392	-1.863	40.96		9.985	10.048	-113.52		-1.22	0.000
343.05	29.390	-1.166	40.96		9.985	10.039	-212.71		-1.22	0.000
343.32	29.386	-0.469	40.96		9.965	10.034	-265.66		-1.22	0.000
343.59	29.385	0.216	40.97		9.962	10.028	-336.82		-1.22	0.000
343.85	29.385	0.913	40.97		9.965	10.026	-342.84		-1.22	0.000
344.12	29.385	1.599	40.97		9.964	10.027	-313.93		-1.22	0.000
344.39	29.385	2.260	40.97		9.966	10.028	-292.25		-1.22	0.000
344.66	29.392	2.933	40.96		9.969	10.030	-277.68		-1.22	0.000
344.93	29.409	3.594	40.94		9.970	10.030	-267.61		-1.22	0.000
345.20	29.428	4.243	40.92		9.970	10.032	-230.68		-1.22	0.000
345.48	29.453	4.892	40.90		9.995	10.036	-205.12		-1.22	0.000
345.75	29.467	5.541	40.88		9.996	10.038	-154.36		-1.22	0.000
346.02	29.500	6.178	40.85		9.998	10.042	-135.22		-1.22	0.000
346.30	29.531	6.779	40.82		9.999	10.044	-110.16		-1.22	0.000
346.57	29.567	7.368	40.78		9.997	10.046	-117.81		-1.22	0.000
346.85	29.592	7.957	40.76		10.000	10.047	-183.16		-1.22	0.000
347.12	29.635	8.510	40.72		10.009	10.048	-226.96		-1.22	0.000
347.40	29.680	9.038	40.67		10.022	10.052	-290.09		-1.22	0.000
347.67	29.726	9.543	40.62		10.038	10.060	-315.58		-1.22	0.000
347.96	29.757	10.036	40.59		10.051	10.077	-318.56		-1.22	0.000
348.23	29.809	10.481	40.54		10.057	10.085	-326.03		-1.22	0.000
348.51	29.862	10.925	40.49		10.077	10.101	-338.12		-1.22	0.000
348.79	29.918	11.322	40.43		10.101	10.119	-346.73		-1.22	0.000
349.06	29.956	11.695	40.39		10.123	10.139	-344.63		-1.22	0.000
349.34	30.017	12.031	40.33		10.147	10.161	-323.87		-1.22	0.000
349.62	30.077	12.332	40.27		10.173	10.184	-304.29		-1.22	0.000
349.89	30.139	12.596	40.21		10.200	10.206	-271.71		-1.22	0.000
350.17	30.182	12.837	40.17		10.223	10.234	-261.75		-1.22	0.000
350.44	30.248	13.041	40.10		10.249	10.261	-236.51		-1.22	0.000
350.72	30.313	13.209	40.04		10.274	10.285	-227.93		-1.22	0.000
351.00	30.378	13.329	39.97		10.299	10.308	-227.20		-1.22	0.000
351.27	30.423	13.425	39.93		10.325	10.330	-230.20		-1.22	0.000
351.55	30.491	13.486	39.86		10.321	10.356	-190.69		-1.22	0.000
351.82	30.558	13.510	39.79		10.348	10.372	-158.59		-1.22	0.000
352.10	30.626	13.486	39.72		10.371	10.395	-97.28		-1.22	0.000
352.38	30.669	13.438	39.68		10.398	10.418	-67.17		-1.22	0.000
352.66	30.737	13.353	39.61		10.421	10.445	-54.22		-1.22	0.000
352.93	30.803	13.221	39.55		10.457	10.470	-22.43		-1.22	0.000
353.20	30.871	13.065	39.48		10.497	10.499	-13.53		-1.22	0.000
353.48	30.912	12.873	39.44		10.535	10.533	-2.50		-1.22	0.000
353.75	30.977	12.644	39.37		10.574	10.569	2.24		-1.22	0.000
354.02	31.039	12.380	39.31		10.611	10.609	2.05		-1.22	0.000
354.30	31.099	12.079	39.25		10.646	10.648	-8.46		-1.22	0.000
354.58	31.140	11.755	39.21		10.684	10.685	-68.33		-1.22	0.000
354.86	31.197	11.394	39.15		10.716	10.720	-109.45		-1.22	0.000
355.14	31.253	10.998	39.10		10.749	10.736	-169.28		-1.22	0.000
355.41	31.306	10.565	39.04		10.782	10.772	-189.03		-1.22	0.000
355.70	31.342	10.108	39.01		10.808	10.803	-220.78		-1.22	0.000
355.98	31.391	9.627	38.96		10.836	10.836	-244.70		-1.22	0.000
356.26	31.436	9.111	38.91		10.858	10.864	-288.48		-1.22	0.000
356.53	31.481	8.570	38.87		10.880	10.892	-301.16		-1.22	0.000
356.81	31.510	8.005	38.84		10.902	10.918	-295.43		-1.22	0.000
357.08	31.547	7.440	38.80		10.921	10.943	-249.30		-1.22	0.000
357.36	31.582	6.839	38.77		10.943	10.966	-219.80		-1.22	0.000
357.64	31.615	6.226	38.73		10.958	10.985	-166.40		-1.22	0.000
357.91	31.635	5.589	38.72		10.974	11.006	-144.12		-1.22	0.000
358.19	31.659	4.928	38.69		10.983	11.024	-121.19		-1.22	0.000
358.47	31.678	4.279	38.67		10.996	11.039	-130.44		-1.22	0.000
358.75	31.701	3.606	38.65		11.007	11.052	-152.80		-1.22	0.000
359.02	31.710	2.921	38.64		11.016	11.064	-164.71		-1.22	0.000
359.30	31.726	2.224	38.62		11.021	11.069	-200.86		-1.22	0.000
359.57	31.730	1.538	38.62		11.026	11.078	-220.79		-1.22	0.000
359.84	31.737	0.829	38.61		11.031	11.083	-279.56		-1.22	0.000
360.10	31.738	0.144	38.61		11.029	11.088	-302.93		-1.22	0.000
360.38	31.740	-0.541	38.61		11.029	11.088	-329.72		-1.22	0.000
360.65	31.740	-1.214	38.61		11.025	11.088	-315.57		-1.22	0.000
360.93	31.740	-1.911	38.61		11.006	11.087	-266.90		-1.22	0.000
361.20	31.740	-2.596	38.61		11.004	11.084	-230.33		-1.22	0.000
361.48	31.723	-3.281	38.63		11.003	11.081	-143.58		-1.22	0.000
361.75	31.706	-3.954	38.64		10.996	11.076	-100.04		-1.22	0.000
362.03	31.687	-4.627	38.66		10.993	11.075	-35.13		-1.22	0.000
362.31	31.664	-5.276	38.69		10.990	11.074	-22.30		-1.22	0.000
362.59	31.635	-5.925	38.72		10.979	11.073	-34.01		-1.22	0.000
362.88	31.603	-6.550	38.75		10.972	11.070	-90.09		-1.22	0.000
363.15	31.567	-7.163	38.78		10.968	11.062	-127.42		-1.22	0.000
363.43	31.542	-7.764	38.81		10.966	11.056	-182.27		-1.22	0.000
363.71	31.501	-8.329	38.85		10.963	11.051	-195.94		-1.22	0.000
363.99	31.458	-8.882	38.89		10.961	11.047	-202.23		-1.22	0.000
364.27	31.413	-9.399	38.94		10.943	11.045	-199.47		-1.22	0.000
364.54	31.381	-9.892	38.97		10.947	11.036	-209.93		-1.22	0.000
364.82	31.331	-10.361	39.02		10.923	11.019	-213.00		-1.22	0.000
365.10	31.277	-10.805	39.07		10.899	10.999	-194.41		-1.22	0.000
365.38	31.222	-11.202	39.13		10.875	10.978	-173.45		-1.22	0.000
365.66	31.164	-11.599	39.19		10.847	10.954	-113.65		-1.22	0.000
365.93	31.124	-11.947	39.23		10.823	10.928	-70.57		-1.22	0.000
366.21	31.065	-12.260	39.28		10.796	10.903	26.26		-1.22	0.000
366.49	31.003	-12.536	39.35		10.765	10.879	76.79		-1.22	0.000
366.77	30.940	-12.776	39.41		10.738	10.847	83.84		-1.22	0.000
367.05	30.899	-12.993	39.45		10.708	10.837	58.53		-1.22	0.000
367.33	30.832	-13.173	39.52		10.681	10.809	41.36		-1.22	0.000
367.60	30.765	-13.305	39.58		10.654	10.784	5.21		-1.22	0.000
367.87	30.699	-13.413	39.65		10.649	10.757	-19.88		-1.22	0.000
368.15	30.654	-13.474	39.70		10.623	10.732	-77.26		-1.22	0.000
368.43	30.587	-13.510	39.76		10.595	10.703	-103.24		-1.22	0.000
368.71	30.519	-13.498	39.83		10.569	10.675	-138.23		-1.22	0.000
368.98	30.453	-13.450	39.90		10.542	10.651	-155.30		-1.22	0.000
369.26	30.406	-13.377	39.94		10.517	10.624	-184.00		-1.22	0.000
369.54	30.340	-13.257	40.01		10.487	10.597	-194.14		-1.22	0.000
369.81	30.276	-13.101	40.07		10.452	10.568	-190.28		-1.22	0.000
370.09	30.209	-12.909	40.14		10.415	10.539	-169.04		-1.22	0.000
370.37	30.167	-12.692	40.18		10.376	10.502	-158.27		-1.22	0.000
370.65	30.105	-12.428	40.24		10.343	10.477	-159.95		-1.22	0.000
370.93	30.042	-12.139	40.31		10.312	10.438	-151.40		-1.22	0.000
371.21	29.983	-11.803	40.37		10.277	10.404	-116.21		-1.22	0.000
371.48	29.945	-11.442	40.41		10.238	10.368	-96.17		-1.22	0.000
371.76	29.887	-11.046	40.46		10.210	10.335	-71.35		-1.22	0.000
372.04	29.832	-10.625	40.52		10.177	10.306	-63.72		-1.22	0.000
372.32	29.781	-10.180	40.57		10.151	10.277	-62.92		-1.22	0.000
372.60	29.731	-9.700	40.62		10.123	10.245	-72.84		-1.22	0.000
372.88	29.701	-9.195	40.65		10.098	10.217	-103.04		-1.22	0.000
373.15	29.657	-8.654	40.69		10.073	10.188	-103.45		-1.22	0.000
373.43	29.613	-8.101	40.74		10.049	10.163	-52.86		-1.22	0.000
373.71	29.574	-7.524	40.78		10.029	10.138	-10.86		-1.22	0.000
373.99	29.551	-6.923	40.80		10.011	10.114	72.70		-1.22	0.000
374.27	29.519	-6.310	40.83		9.997	10.090	118.94		-1.22	0.000
374.55	29.489	-5.673	40.86		9.983	10.073	126.12		-1.22	0.000
374.82	29.463	-5.012	40.89		9.973	10.053	110.38		-1.22	0.000
375.09	29.448	-4.363	40.90		9.965	10.048	97.49		-1.22	0.000
375.37	29.428	-3.702	40.92		9.955	10.034	89.38		-1.22	0.000
375.63	29.412	-3.029	40.94		9.947	10.025	97.06		-1.22	0.000
375.90	29.400	-2.332	40.95		9.937	10.014	127.22		-1.22	0.000
376.17	29.396	-1.659	40.95		9.934	10.002	141.30		-1.22	0.000
376.44	29.390	-0.974	40.96		9.927	9.994	128.20		-1.22	0.000
376.71	29.386	-0.288	40.96		9.928	9.988	99.00		-1.22	0.000
376.97	29.386	0.385	40.96		9.927	9.987	0.96		-1.22	0.000
377.24	29.386	1.058	40.96		9.941	9.986	-49.48		-1.22	0.000
377.50	29.386	1.731	40.96		9.944	9.985	-95.53		-1.22	0.000
377.77	29.386	2.392	40.96		9.946	9.987	-164.39		-1.22	0.000
378.04	29.401	3.053	40.95		9.947	9.993	-187.33		-1.22	0.000
378.31	29.412	3.714	40.94		9.949	9.994	-214.38		-1.22	0.000
378.58	29.428	4.363	40.92		9.951	9.995	-221.07		-1.22	0.000
378.86	29.455	5.012	40.89		9.954	9.997	-223.28		-1.22	0.000
379.13	29.483	5.661	40.87		9.934	9.997	-220.08		-1.22	0.000
379.41	29.504	6.286	40.85		9.936	9.998	-242.24		-1.22	0.000
379.68	29.540	6.887	40.81		9.936	10.000	-259.99		-1.22	0.000
379.95	29.572	7.488	40.78		9.938	10.004	-283.38		-1.22	0.000
380.23	29.613	8.053	40.74		9.941	10.005	-296.83		-1.22	0.000
380.50	29.640	8.606	40.71		9.951	10.008	-291.62		-1.22	0.000
380.78	29.685	9.123	40.67		9.964	10.015	-274.85		-1.22	0.000
381.06	29.731	9.639	40.62		9.979	10.024	-267.98		-1.22	0.000
381.33	29.782	10.120	40.57		9.999	10.035	-277.81		-1.22	0.000
381.61	29.815	10.565	40.53		10.020	10.050	-303.41		-1.22	0.000
381.89	29.869	10.986	40.48		10.044	10.066	-375.22		-1.22	0.000
382.17	29.926	11.382	40.42		10.067	10.089	-401.38		-1.22	0.000
382.45	29.983	11.755	40.37		10.090	10.113	-411.51		-1.22	0.000
382.72	30.024	12.079	40.33		10.112	10.134	-393.61		-1.22	0.000
383.00	30.085	12.380	40.27		10.137	10.144	-326.40		-1.22	0.000
383.28	30.146	12.644	40.20		10.160	10.168	-285.61		-1.22	0.000
383.56	30.210	12.885	40.14		10.182	10.191	-241.89		-1.22	0.000
383.83	30.255	13.077	40.09		10.204	10.214	-241.17		-1.22	0.000
384.11	30.321	13.233	40.03		10.228	10.237	-270.15		-1.22	0.000
384.39	30.386	13.353	39.96		10.252	10.261	-283.95		-1.22	0.000
384.67	30.454	13.438	39.90		10.275	10.283	-255.90		-1.22	0.000
384.94	30.499	13.498	39.85		10.301	10.304	-188.68		-1.22	0.000
385.22	30.567	13.510	39.78		10.326	10.332	-152.16		-1.22	0.000
385.50	30.633	13.486	39.72		10.350	10.364	-118.67		-1.22	0.000
385.78	30.700	13.425	39.65		10.375	10.393	-123.83		-1.22	0.000
386.07	30.768	13.317	39.58		10.404	10.415	-160.15		-1.22	0.000
386.34	30.813	13.185	39.54		10.442	10.442	-184.14		-1.22	0.000
386.62	30.878	13.005	39.47		10.481	10.476	-200.22		-1.22	0.000
386.90	30.941	12.800	39.41		10.520	10.514	-192.14		-1.22	0.000
387.17	31.005	12.560	39.34		10.560	10.553	-180.79		-1.22	0.000
387.45	31.046	12.284	39.30		10.594	10.568	-184.57		-1.22	0.000
387.73	31.106	11.971	39.24		10.628	10.608	-207.96		-1.22	0.000
388.01	31.167	11.635	39.18		10.664	10.646	-216.70		-1.22	0.000
388.28	31.222	11.262	39.13		10.698	10.681	-219.95		-1.22	0.000
388.56	31.262	10.853	39.09		10.731	10.714	-243.61		-1.22	0.000
388.84	31.313	10.421	39.04		10.762	10.747	-256.55		-1.22	0.000
389.12	31.363	9.952	38.99		10.789	10.779	-267.76		-1.22	0.000
389.40	31.413	9.459	38.94		10.814	10.811	-250.30		-1.22	0.000
389.68	31.459	8.942	38.89		10.807	10.841	-219.02		-1.22	0.000
389.96	31.486	8.389	38.86		10.830	10.869	-198.97		-1.22	0.000
390.23	31.528	7.813	38.82		10.853	10.894	-184.27		-1.22	0.000
390.51	31.564	7.236	38.79		10.873	10.917	-192.42		-1.22	0.000
390.80	31.599	6.647	38.75		10.894	10.940	-248.34		-1.22	0.000
391.07	31.621	5.998	38.73		10.916	10.962	-289.06		-1.22	0.000
391.35	31.649	5.349	38.70		10.931	10.983	-329.89		-1.22	0.000
391.63	31.673	4.700	38.68		10.946	10.997	-295.43		-1.22	0.000
391.91	31.694	4.014	38.66		10.955	11.013	-259.41		-1.22	0.000
392.18	31.703	3.353	38.65		10.965	11.017	-208.24		-1.22	0.000
392.46	31.721	2.644	38.63		10.974	11.028	-194.52		-1.22	0.000
392.72	31.730	1.959	38.62		10.978	11.033	-187.28		-1.22	0.000
393.00	31.737	1.274	38.61		10.984	11.043	-194.75		-1.22	0.000
393.27	31.740	0.589	38.61		10.982	11.047	-205.56		-1.22	0.000
393.54	31.741	-0.096	38.61		10.980	11.049	-198.33		-1.22	0.000
393.81	31.741	-0.781	38.61		10.978	11.047	-166.07		-1.22	0.000
394.09	31.741	-1.466	38.61		10.974	11.047	-136.54		-1.22	0.000
394.36	31.741	-2.163	38.61		10.969	11.047	-89.29		-1.22	0.000
394.63	31.732	-2.849	38.62		10.968	11.046	-78.51		-1.22	0.000
394.91	31.718	-3.534	38.63		10.963	11.045	-108.83		-1.22	0.000
395.18	31.701	-4.195	38.65		10.962	11.042	-145.45		-1.22	0.000
395.46	31.678	-4.856	38.67		10.956	11.039	-231.36		-1.22	0.000
395.74	31.653	-5.505	38.70		10.971	11.036	-268.26		-1.22	0.000
396.02	31.623	-6.142	38.73		10.962	11.034	-287.94		-1.22	0.000
396.30	31.603	-6.767	38.75		10.953	11.027	-279.67		-1.22	0.000
396.58	31.565	-7.368	38.78		10.951	11.023	-250.43		-1.22	0.000
396.86	31.527	-7.957	38.82		10.948	11.015	-235.50		-1.22	0.000
397.15	31.486	-8.522	38.86		10.945	11.010	-227.05		-1.22	0.000
397.43	31.440	-9.075	38.91		10.939	11.007	-234.67		-1.22	0.000
397.70	31.410	-9.591	38.94		10.920	11.001	-222.03		-1.22	0.000
397.98	31.360	-10.084	38.99		10.901	10.991	-162.66		-1.22	0.000
398.26	31.309	-10.529	39.04		10.877	10.976	-128.96		-1.22	0.000
398.54	31.255	-10.962	39.09		10.854	10.954	-66.70		-1.22	0.000
398.82	31.200	-11.358	39.15		10.828	10.933	-40.49		-1.22	0.000
399.09	31.162	-11.731	39.19		10.807	10.914	15.54		-1.22	0.000
399.37	31.100	-12.067	39.25		10.777	10.905	39.88		-1.22	0.000
399.65	31.040	-12.368	39.31		10.751	10.883	63.63		-1.22	0.000
399.92	30.977	-12.632	39.37		10.721	10.854	58.02		-1.22	0.000
400.20	30.936	-12.861	39.41		10.696	10.825	22.98		-1.22	0.000
400.46	30.871	-13.053	39.48		10.666	10.796	1.40		-1.22	0.000
400.75	30.805	-13.221	39.54		10.642	10.764	-65.60		-1.22	0.000
401.02	30.760	-13.341	39.59		10.615	10.737	-102.28		-1.22	0.000
401.30	30.692	-13.438	39.66		10.592	10.709	-133.98		-1.22	0.000
401.58	30.626	-13.486	39.72		10.566	10.683	-145.42		-1.22	0.000
401.86	30.559	-13.510	39.79		10.540	10.654	-156.61		-1.22	0.000
402.13	30.491	-13.486	39.86		10.511	10.626	-176.85		-1.22	0.000
402.41	30.447	-13.425	39.90		10.488	10.599	-185.35		-1.22	0.000
402.69	30.378	-13.341	39.97		10.463	10.572	-161.41		-1.22	0.000
402.97	30.314	-13.209	40.04		10.444	10.557	-146.44		-1.22	0.000
403.25	30.248	-13.041	40.10		10.404	10.530	-116.37		-1.22	0.000
403.52	30.204	-12.837	40.15		10.366	10.499	-105.09		-1.22	0.000
403.80	30.141	-12.596	40.21		10.325	10.464	-81.42		-1.22	0.000
404.08	30.078	-12.332	40.27		10.293	10.427	-72.17		-1.22	0.000
404.35	30.018	-12.019	40.33		10.258	10.389	-80.73		-1.22	0.000
404.63	29.978	-11.683	40.37		10.225	10.356	-81.39		-1.22	0.000
404.91	29.921	-11.322	40.43		10.194	10.321	-88.85		-1.22	0.000
405.18	29.864	-10.913	40.49		10.162	10.288	-98.08		-1.22	0.000
405.46	29.812	-10.481	40.54		10.134	10.260	-112.35		-1.22	0.000
405.74	29.777	-10.036	40.57		10.104	10.229	-128.92		-1.22	0.000
406.02	29.728	-9.543	40.62		10.078	10.198	-132.47		-1.22	0.000
406.30	29.682	-9.026	40.67		10.052	10.172	-136.15		-1.22	0.000
406.57	29.640	-8.486	40.71		10.062	10.145	-136.78		-1.22	0.000
406.85	29.612	-7.921	40.74		10.038	10.117	-145.12		-1.22	0.000
407.13	29.573	-7.344	40.78		10.017	10.102	-149.39		-1.22	0.000
407.41	29.540	-6.743	40.81		9.998	10.081	-154.65		-1.22	0.000
407.68	29.508	-6.118	40.84		9.982	10.061	-151.27		-1.22	0.000
407.96	29.487	-5.469	40.86		9.969	10.044	-125.51		-1.22	0.000
408.24	29.462	-4.832	40.89		9.957	10.030	-112.17		-1.22	0.000
408.51	29.441	-4.159	40.91		9.946	10.016	-72.75		-1.22	0.000
408.78	29.423	-3.486	40.93		9.934	10.001	-40.71		-1.22	0.000
409.06	29.415	-2.800	40.93		9.928	9.991	-2.34		-1.22	0.000
409.32	29.405	-2.127	40.94		9.923	9.980	9.91		-1.22	0.000
409.60	29.396	-1.442	40.95		9.907	9.977	21.53		-1.22	0.000
409.86	29.389	-0.769	40.96		9.905	9.977	31.94		-1.22	0.000
410.13	29.389	-0.072	40.96		9.909	9.976	51.86		-1.22	0.000
410.39	29.389	0.601	40.96		9.911	9.975	53.48		-1.22	0.000
410.66	29.389	1.274	40.96		9.911	9.974	30.11		-1.22	0.000
410.92	29.389	1.923	40.96		9.914	9.975	1.86		-1.22	0.000
411.18	29.395	2.608	40.96		9.918	9.976	-70.09		-1.22	0.000
411.45	29.403	3.257	40.95		9.918	9.976	-111.07		-1.22	0.000
411.73	29.419	3.906	40.93		9.918	9.976	-187.69		-1.22	0.000
412.00	29.446	4.567	40.90		9.916	9.977	-204.93		-1.22	0.000
412.27	29.462	5.216	40.89		9.918	9.977	-199.29		-1.22	0.000
412.55	29.491	5.841	40.86		9.919	9.979	-192.70		-1.22	0.000
412.82	29.522	6.466	40.83		9.918	9.979	-189.70		-1.22	0.000
413.10	29.557	7.067	40.79		9.919	9.978	-196.49		-1.22	0.000
413.37	29.580	7.644	40.77		9.918	9.978	-218.05		-1.22	0.000
413.65	29.621	8.233	40.73		9.939	9.978	-232.75		-1.22	0.000
413.92	29.663	8.762	40.69		9.950	9.981	-238.25		-1.22	0.000
414.19	29.708	9.291	40.64		9.962	9.986	-247.15		-1.22	0.000
414.47	29.739	9.784	40.61		9.978	9.997	-260.77		-1.22	0.000
414.74	29.790	10.252	40.56		9.997	10.001	-263.96		-1.22	0.000
415.02	29.841	10.685	40.51		10.017	10.017	-293.40		-1.22	0.000
415.29	29.880	11.094	40.47		10.039	10.038	-305.63		-1.22	0.000
415.57	29.935	11.478	40.42		10.061	10.058	-320.34		-1.22	0.000
415.85	29.992	11.839	40.36		10.084	10.077	-315.82		-1.22	0.000
416.13	30.053	12.163	40.30		10.111	10.100	-316.84		-1.22	0.000
416.41	30.115	12.452	40.23		10.136	10.127	-323.33		-1.22	0.000
416.68	30.156	12.716	40.19		10.126	10.153	-339.19		-1.22	0.000
416.96	30.221	12.933	40.13		10.147	10.177	-374.60		-1.22	0.000
417.23	30.287	13.113	40.06		10.173	10.203	-392.68		-1.22	0.000
417.51	30.353	13.269	40.00		10.199	10.227	-412.82		-1.22	0.000
417.79	30.398	13.377	39.95		10.224	10.251	-398.47		-1.22	0.000
418.06	30.463	13.462	39.89		10.250	10.273	-344.24		-1.22	0.000
418.33	30.531	13.498	39.82		10.277	10.285	-319.17		-1.22	0.000
418.61	30.576	13.510	39.77		10.303	10.312	-282.60		-1.22	0.000
418.89	30.644	13.474	39.71		10.331	10.338	-263.44		-1.22	0.000
419.17	30.710	13.401	39.64		10.358	10.368	-219.24		-1.22	0.000
419.44	30.777	13.293	39.57		10.394	10.395	-193.42		-1.22	0.000
419.72	30.844	13.161	39.51		10.417	10.417	-127.00		-1.22	0.000
419.99	30.886	12.981	39.46		10.454	10.446	-86.40		-1.22	0.000
420.27	30.951	12.764	39.40		10.493	10.484	-9.42		-1.22	0.000
420.54	31.014	12.524	39.34		10.531	10.527	11.57		-1.22	0.000
420.82	31.055	12.236	39.29		10.569	10.564	8.95		-1.22	0.000
421.08	31.117	11.935	39.23		10.601	10.600	1.85		-1.22	0.000
421.35	31.174	11.587	39.18		10.631	10.636	1.29		-1.22	0.000
421.62	31.232	11.238	39.12		10.665	10.657	12.27		-1.22	0.000
421.90	31.269	10.829	39.08		10.696	10.697	47.88		-1.22	0.000
422.17	31.323	10.409	39.03		10.726	10.731	54.82		-1.22	0.000
422.45	31.373	9.952	38.98		10.756	10.763	54.41		-1.22	0.000
422.72	31.404	9.459	38.95		10.781	10.797	58.93		-1.22	0.000
423.01	31.450	8.942	38.90		10.807	10.828	84.60		-1.22	0.000
423.27	31.495	8.413	38.86		10.832	10.854	113.54		-1.22	0.000
423.55	31.536	7.837	38.81		10.852	10.879	151.67		-1.22	0.000
423.82	31.559	7.272	38.79		10.874	10.901	140.00		-1.22	0.000
424.11	31.594	6.671	38.76		10.895	10.923	120.42		-1.22	0.000
424.38	31.623	6.058	38.73		10.913	10.941	86.34		-1.22	0.000
424.65	31.653	5.409	38.70		10.927	10.952	69.50		-1.22	0.000
424.92	31.671	4.760	38.68		10.940	10.969	60.14		-1.22	0.000
425.20	31.692	4.099	38.66		10.924	10.984	72.10		-1.22	0.000
425.47	31.710	3.438	38.64		10.934	10.994	105.57		-1.22	0.000
425.74	31.721	2.764	38.63		10.939	11.004	114.26		-1.22	0.000
426.00	31.731	2.079	38.62		10.945	11.011	96.23		-1.22	0.000
426.28	31.740	1.406	38.61		10.946	11.016	78.26		-1.22	0.000
426.54	31.741	0.721	38.61		10.951	11.019	84.57		-1.22	0.000
426.81	31.742	0.036	38.61		10.952	11.022	96.54		-1.22	0.000
427.08	31.742	-0.637	38.61		10.964	11.022	119.64		-1.22	0.000
427.36	31.742	-1.322	38.61		10.962	11.023	120.64		-1.22	0.000
427.63	31.742	-2.007	38.61		10.960	11.022	125.95		-1.22	0.000
427.90	31.741	-2.692	38.61		10.956	11.020	126.74		-1.22	0.000
428.17	31.723	-3.377	38.63		10.954	11.020	131.47		-1.22	0.000
428.45	31.709	-4.038	38.64		10.949	11.022	132.21		-1.22	0.000
428.74	31.687	-4.688	38.66		10.946	11.020	128.80		-1.22	0.000
429.01	31.662	-5.349	38.69		10.938	11.016	129.56		-1.22	0.000
429.29	31.632	-6.010	38.72		10.927	11.012	122.22		-1.22	0.000
429.56	31.610	-6.611	38.74		10.920	11.007	108.13		-1.22	0.000
429.84	31.574	-7.224	38.78		10.919	10.999	73.05		-1.22	0.000
430.12	31.538	-7.800	38.81		10.921	10.992	49.51		-1.22	0.000
430.39	31.497	-8.377	38.85		10.921	10.991	13.02		-1.22	0.000
430.66	31.467	-8.918	38.88		10.918	10.986	-14.79		-1.22	0.000
430.95	31.421	-9.423	38.93		10.906	10.983	-65.62		-1.22	0.000
431.23	31.373	-9.916	38.98		10.886	10.974	-99.89		-1.22	0.000
431.50	31.322	-10.385	39.03		10.861	10.963	-177.68		-1.22	0.000
431.78	31.269	-10.829	39.08		10.840	10.945	-244.50		-1.22	0.000
432.06	31.233	-11.238	39.12		10.816	10.920	-275.40		-1.22	0.000
432.34	31.177	-11.611	39.17		10.792	10.895	-315.37		-1.22	0.000
432.62	31.117	-11.959	39.23		10.768	10.872	-340.60		-1.22	0.000
432.90	31.054	-12.272	39.30		10.741	10.847	-372.45		-1.22	0.000
433.17	31.014	-12.560	39.34		10.714	10.824	-380.72		-1.22	0.000
433.45	30.951	-12.800	39.40		10.688	10.798	-392.12		-1.22	0.000
433.73	30.887	-13.005	39.46		10.652	10.770	-402.35		-1.22	0.000
434.01	30.821	-13.173	39.53		10.627	10.741	-403.92		-1.22	0.000
434.29	30.777	-13.317	39.57		10.600	10.713	-386.89		-1.22	0.000
434.57	30.710	-13.413	39.64		10.573	10.686	-321.09		-1.22	0.000
434.85	30.642	-13.486	39.71		10.546	10.677	-280.75		-1.22	0.000
435.13	30.576	-13.510	39.77		10.519	10.650	-196.40		-1.22	0.000
435.42	30.508	-13.498	39.84		10.493	10.622	-94.33		-1.22	0.000
435.69	30.464	-13.450	39.89		10.469	10.594	-36.47		-1.22	0.000
435.98	30.395	-13.353	39.96		10.443	10.567	62.77		-1.22	0.000
436.25	30.331	-13.233	40.02		10.412	10.542	105.40		-1.22	0.000
436.52	30.264	-13.065	40.09		10.371	10.515	199.33		-1.22	0.000
436.80	30.221	-12.873	40.13		10.333	10.483	240.47		-1.22	0.000
437.08	30.156	-12.644	40.19		10.298	10.445	292.47		-1.22	0.000
437.35	30.094	-12.392	40.26		10.266	10.407	296.31		-1.22	0.000
437.63	30.033	-12.091	40.32		10.253	10.367	283.21		-1.22	0.000
437.90	29.992	-11.767	40.36		10.220	10.332	270.98		-1.22	0.000
438.18	29.936	-11.394	40.41		10.187	10.300	244.44		-1.22	0.000
438.45	29.878	-11.010	40.47		10.156	10.266	227.57		-1.22	0.000
438.73	29.826	-10.589	40.52		10.126	10.249	193.53		-1.22	0.000
439.01	29.791	-10.144	40.56		10.096	10.216	180.17		-1.22	0.000
439.29	29.741	-9.663	40.61		10.070	10.188	155.64		-1.22	0.000
439.56	29.696	-9.147	40.65		10.043	10.163	132.19		-1.22	0.000
439.84	29.651	-8.606	40.70		10.014	10.134	120.86		-1.22	0.000
440.13	29.610	-8.065	40.74		9.994	10.106	82.97		-1.22	0.000
440.40	29.582	-7.476	40.77		9.971	10.081	69.25		-1.22	0.000
440.67	29.548	-6.863	40.80		9.952	10.062	56.33		-1.22	0.000
440.94	29.517	-6.262	40.83		9.963	10.046	60.65		-1.22	0.000
441.21	29.496	-5.637	40.85		9.948	10.027	59.92		-1.22	0.000
441.48	29.471	-5.012	40.88		9.936	10.008	47.13		-1.22	0.000
441.76	29.449	-4.363	40.90		9.926	9.989	-2.65		-1.22	0.000
442.03	29.428	-3.714	40.92		9.915	9.982	-29.47		-1.22	0.000
442.30	29.418	-3.017	40.93		9.907	9.972	-75.97		-1.22	0.000
442.58	29.403	-2.344	40.95		9.904	9.963	-94.49		-1.22	0.000
442.85	29.394	-1.659	40.96		9.901	9.955	-103.46		-1.22	0.000
443.12	29.392	-0.962	40.96		9.898	9.950	-99.86		-1.22	0.000
443.40	29.389	-0.276	40.96		9.877	9.945	-111.51		-1.22	0.000
443.66	29.389	0.397	40.96		9.878	9.942	-128.70		-1.22	0.000
443.93	29.389	1.118	40.96		9.879	9.941	-175.46		-1.22	0.000
444.20	29.389	1.779	40.96		9.882	9.941	-183.16		-1.22	0.000
444.47	29.389	2.452	40.96		9.884	9.942	-198.28		-1.22	0.000
444.74	29.404	3.137	40.95		9.885	9.943	-209.98		-1.22	0.000
445.02	29.418	3.798	40.93		9.889	9.943	-253.26		-1.22	0.000
445.30	29.440	4.459	40.91		9.889	9.946	-280.27		-1.22	0.000
445.57	29.464	5.108	40.89		9.902	9.946	-327.43		-1.22	0.000
445.84	29.482	5.757	40.87		9.901	9.947	-339.44		-1.22	0.000
446.11	29.512	6.382	40.84		9.902	9.950	-343.40		-1.22	0.000
446.38	29.545	6.971	40.81		9.901	9.954	-331.99		-1.22	0.000
446.66	29.583	7.560	40.77		9.903	9.955	-283.76		-1.22	0.000
446.93	29.609	8.125	40.74		9.906	9.957	-254.68		-1.22	0.000
447.21	29.651	8.678	40.70		9.916	9.962	-189.00		-1.22	0.000
447.48	29.695	9.195	40.66		9.929	9.963	-166.38		-1.22	0.000
447.75	29.727	9.700	40.62		9.946	9.973	-129.17		-1.22	0.000
448.03	29.776	10.168	40.57		9.959	9.986	-118.22		-1.22	0.000
448.30	29.828	10.613	40.52		9.981	10.001	-98.02		-1.22	0.000
448.58	29.882	11.034	40.47		10.003	10.018	-98.54		-1.22	0.000
448.85	29.919	11.418	40.43		10.027	10.038	-126.49		-1.22	0.000
449.13	29.977	11.779	40.37		10.051	10.058	-137.90		-1.22	0.000
449.41	30.037	12.103	40.31		10.077	10.084	-163.58		-1.22	0.000
449.68	30.099	12.404	40.25		10.100	10.106	-176.55		-1.22	0.000
449.95	30.140	12.668	40.21		10.127	10.128	-218.29		-1.22	0.000
450.23	30.204	12.885	40.15		10.150	10.153	-262.72		-1.22	0.000
450.51	30.269	13.077	40.08		10.173	10.164	-264.75		-1.22	0.000
450.78	30.335	13.233	40.02		10.198	10.189	-213.18		-1.22	0.000
451.06	30.380	13.365	39.97		10.188	10.212	-172.11		-1.22	0.000
451.34	30.446	13.450	39.90		10.214	10.235	-92.95		-1.22	0.000
451.62	30.513	13.498	39.84		10.239	10.260	-50.58		-1.22	0.000
451.89	30.581	13.510	39.77		10.265	10.285	1.11		-1.22	0.000
452.16	30.626	13.486	39.72		10.291	10.315	9.59		-1.22	0.000
452.43	30.692	13.425	39.66		10.317	10.346	6.49		-1.22	0.000
452.71	30.760	13.329	39.59		10.346	10.368	-9.97		-1.22	0.000
452.98	30.827	13.197	39.52		10.388	10.397	-33.37		-1.22	0.000
453.25	30.871	13.029	39.48		10.428	10.430	-57.73		-1.22	0.000
453.53	30.936	12.825	39.41		10.465	10.465	-131.81		-1.22	0.000
453.80	30.997	12.596	39.35		10.502	10.482	-184.61		-1.22	0.000
454.08	31.040	12.320	39.31		10.538	10.521	-282.92		-1.22	0.000
454.35	31.101	12.019	39.25		10.570	10.560	-318.99		-1.22	0.000
454.64	31.159	11.683	39.19		10.605	10.593	-343.88		-1.22	0.000
454.91	31.218	11.310	39.13		10.638	10.630	-326.98		-1.22	0.000
455.20	31.272	10.913	39.08		10.671	10.665	-278.76		-1.22	0.000
455.48	31.309	10.481	39.04		10.700	10.700	-254.11		-1.22	0.000
455.76	31.359	10.000	38.99		10.728	10.730	-245.58		-1.22	0.000
456.03	31.409	9.507	38.94		10.752	10.762	-203.08		-1.22	0.000
456.32	31.455	8.978	38.89		10.775	10.790	-172.45		-1.22	0.000
456.59	31.483	8.462	38.87		10.799	10.815	-115.41		-1.22	0.000
456.87	31.524	7.885	38.83		10.819	10.844	-94.45		-1.22	0.000
457.15	31.562	7.308	38.79		10.838	10.866	-87.25		-1.22	0.000
457.42	31.597	6.695	38.75		10.859	10.889	-91.49		-1.22	0.000
457.71	31.627	6.070	38.72		10.878	10.912	-113.36		-1.22	0.000
457.98	31.647	5.433	38.70		10.894	10.931	-131.44		-1.22	0.000
458.25	31.672	4.772	38.68		10.908	10.938	-166.58		-1.22	0.000
458.53	31.694	4.123	38.66		10.920	10.951	-179.38		-1.22	0.000
458.82	31.709	3.450	38.64		10.932	10.969	-198.63		-1.22	0.000
459.09	31.721	2.764	38.63		10.941	10.981	-212.03		-1.22	0.000
459.37	31.733	2.043	38.62		10.942	10.988	-204.56		-1.22	0.000
459.64	31.737	1.346	38.61		10.946	10.996	-174.93		-1.22	0.000
459.91	31.744	0.649	38.61		10.949	11.001	-155.11		-1.22	0.000
460.18	31.744	-0.036	38.61		10.948	11.005	-133.56		-1.22	0.000
460.46	31.744	-0.721	38.61		10.945	11.008	-134.05		-1.22	0.000
460.73	31.744	-1.418	38.61		10.925	11.011	-134.78		-1.22	0.000
461.00	31.744	-2.103	38.61		10.922	11.009	-130.96		-1.22	0.000
461.28	31.737	-2.788	38.61		10.922	11.004	-98.24		-1.22	0.000
461.55	31.721	-3.474	38.63		10.916	11.003	-66.66		-1.22	0.000
461.83	31.700	-4.147	38.65		10.913	10.999	-7.82		-1.22	0.000
462.11	31.688	-4.808	38.66		10.912	10.996	19.35		-1.22	0.000
462.39	31.659	-5.457	38.69		10.904	10.993	52.41		-1.22	0.000
462.66	31.631	-6.094	38.72		10.896	10.987	59.30		-1.22	0.000
462.94	31.599	-6.731	38.75		10.890	10.981	65.74		-1.22	0.000
463.22	31.574	-7.320	38.78		10.887	10.974	57.35		-1.22	0.000
463.49	31.536	-7.909	38.81		10.887	10.970	20.18		-1.22	0.000
463.77	31.495	-8.462	38.86		10.901	10.964	-10.19		-1.22	0.000
464.04	31.451	-9.002	38.90		10.898	10.962	-89.73		-1.22	0.000
464.32	31.422	-9.507	38.93		10.882	10.960	-133.34		-1.22	0.000
464.60	31.369	-10.000	38.98		10.858	10.952	-191.93		-1.22	0.000
464.89	31.321	-10.457	39.03		10.835	10.935	-219.89		-1.22	0.000
465.16	31.265	-10.901	39.08		10.809	10.913	-231.63		-1.22	0.000
465.44	31.212	-11.298	39.14		10.784	10.901	-253.52		-1.22	0.000
465.72	31.173	-11.671	39.18		10.762	10.877	-273.80		-1.22	0.000
465.99	31.113	-12.019	39.24		10.736	10.855	-309.77		-1.22	0.000
466.27	31.054	-12.320	39.30		10.711	10.831	-319.03		-1.22	0.000
466.55	30.990	-12.596	39.36		10.681	10.804	-330.41		-1.22	0.000
466.83	30.949	-12.825	39.40		10.653	10.779	-323.71		-1.22	0.000
467.10	30.882	-13.029	39.47		10.622	10.748	-287.45		-1.22	0.000
467.38	30.818	-13.197	39.53		10.594	10.721	-268.94		-1.22	0.000
467.66	30.751	-13.329	39.60		10.592	10.693	-255.92		-1.22	0.000
467.93	30.708	-13.425	39.64		10.567	10.669	-257.05		-1.22	0.000
468.22	30.639	-13.486	39.71		10.540	10.641	-282.47		-1.22	0.000
468.49	30.572	-13.510	39.78		10.512	10.614	-289.67		-1.22	0.000
468.77	30.504	-13.486	39.85		10.488	10.585	-268.81		-1.22	0.000
469.05	30.459	-13.438	39.89		10.463	10.555	-212.49		-1.22	0.000
469.33	30.394	-13.341	39.96		10.438	10.540	-176.07		-1.22	0.000
469.60	30.326	-13.221	40.02		10.405	10.515	-120.68		-1.22	0.000
469.88	30.260	-13.053	40.09		10.365	10.491	-98.56		-1.22	0.000
470.16	30.217	-12.861	40.13		10.328	10.459	-74.64		-1.22	0.000
470.43	30.154	-12.632	40.20		10.290	10.422	-74.62		-1.22	0.000
470.71	30.092	-12.368	40.26		10.261	10.383	-76.45		-1.22	0.000
470.99	30.031	-12.067	40.32		10.223	10.345	-68.56		-1.22	0.000
471.27	29.991	-11.731	40.36		10.191	10.314	-51.97		-1.22	0.000
471.55	29.932	-11.358	40.42		10.157	10.284	-47.98		-1.22	0.000
471.82	29.877	-10.962	40.47		10.125	10.252	-83.67		-1.22	0.000
472.10	29.823	-10.529	40.53		10.096	10.219	-113.71		-1.22	0.000
472.38	29.772	-10.072	40.58		10.070	10.190	-175.44		-1.22	0.000
472.66	29.740	-9.591	40.61		10.044	10.160	-211.91		-1.22	0.000
472.94	29.692	-9.075	40.66		10.022	10.133	-223.24		-1.22	0.000
473.22	29.649	-8.534	40.70		9.999	10.106	-220.62		-1.22	0.000
473.49	29.608	-7.981	40.74		9.976	10.095	-214.03		-1.22	0.000
473.77	29.582	-7.392	40.77		9.955	10.068	-205.26		-1.22	0.000
474.05	29.546	-6.803	40.80		9.937	10.044	-203.44		-1.22	0.000
474.32	29.514	-6.178	40.84		9.925	10.023	-174.00		-1.22	0.000
474.60	29.487	-5.529	40.86		9.926	10.004	-146.01		-1.22	0.000
474.87	29.468	-4.892	40.88		9.910	9.988	-60.34		-1.22	0.000
475.14	29.448	-4.231	40.90		9.902	9.975	-11.60		-1.22	0.000
475.41	29.430	-3.570	40.92		9.889	9.961	81.30		-1.22	0.000
475.68	29.421	-2.897	40.93		9.878	9.948	116.70		-1.22	0.000
475.95	29.409	-2.224	40.94		9.875	9.939	165.61		-1.22	0.000
476.22	29.398	-1.538	40.95		9.871	9.932	162.80		-1.22	0.000
476.49	29.394	-0.853	40.96		9.868	9.930	133.03		-1.22	0.000
476.76	29.390	-0.168	40.96		9.874	9.928	120.01		-1.22	0.000
477.03	29.390	0.505	40.96		9.876	9.928	122.00		-1.22	0.000
477.30	29.390	1.190	40.96		9.879	9.928	128.80		-1.22	0.000
477.56	29.390	1.863	40.96		9.881	9.928	137.94		-1.22	0.000
477.83	29.391	2.548	40.96		9.882	9.928	140.21		-1.22	0.000
478.10	29.409	3.209	40.94		9.887	9.929	97.22		-1.22	0.000
478.37	29.421	3.870	40.93		9.888	9.928	69.92		-1.22	0.000
478.64	29.442	4.519	40.91		9.868	9.932	18.02		-1.22	0.000
478.91	29.467	5.168	40.88		9.871	9.934	-1.19		-1.22	0.000
479.18	29.485	5.793	40.87		9.872	9.936	-2.46		-1.22	0.000
479.45	29.515	6.406	40.83		9.874	9.936	-4.61		-1.22	0.000
479.72	29.551	6.995	40.80		9.874	9.935	-11.92		-1.22	0.000
479.99	29.574	7.572	40.78		9.873	9.936	-19.59		-1.22	0.000
480.26	29.614	8.137	40.74		9.880	9.939	-31.86		-1.22	0.000
480.54	29.657	8.678	40.69		9.891	9.941	-38.30		-1.22	0.000
480.81	29.700	9.183	40.65		9.905	9.944	-49.82		-1.22	0.000
481.08	29.732	9.700	40.62		9.933	9.953	-41.60		-1.22	0.000
481.36	29.783	10.168	40.57		9.950	9.964	-16.17		-1.22	0.000
481.62	29.833	10.613	40.52		9.970	9.979	-3.73		-1.22	0.000
481.90	29.871	11.022	40.48		9.991	9.996	19.00		-1.22	0.000
482.17	29.927	11.406	40.42		10.012	10.016	41.50		-1.22	0.000
482.44	29.985	11.755	40.37		10.034	10.038	94.41		-1.22	0.000
482.71	30.024	12.079	40.33		10.059	10.058	112.87		-1.22	0.000
482.99	30.086	12.380	40.26		10.081	10.081	103.63		-1.22	0.000
483.26	30.148	12.644	40.20		10.083	10.095	87.24		-1.22	0.000
483.53	30.212	12.873	40.14		10.106	10.120	28.46		-1.22	0.000
483.81	30.254	13.065	40.10		10.129	10.144	0.77		-1.22	0.000
484.08	30.321	13.221	40.03		10.157	10.167	-55.11		-1.22	0.000
484.36	30.387	13.341	39.96		10.179	10.193	-83.12		-1.22	0.000
484.64	30.453	13.438	39.90		10.208	10.220	-121.12		-1.22	0.000
484.91	30.497	13.486	39.85		10.236	10.240	-138.50		-1.22	0.000
485.19	30.565	13.510	39.78		10.260	10.263	-172.42		-1.22	0.000
485.46	30.633	13.486	39.72		10.291	10.292	-191.06		-1.22	0.000
485.74	30.700	13.425	39.65		10.311	10.321	-215.24		-1.22	0.000
486.01	30.745	13.341	39.61		10.319	10.344	-207.37		-1.22	0.000
486.29	30.813	13.209	39.54		10.357	10.368	-166.16		-1.22	0.000
486.57	30.877	13.041	39.47		10.390	10.404	-130.28		-1.22	0.000
486.85	30.942	12.849	39.41		10.435	10.425	-77.66		-1.22	0.000
487.12	30.985	12.608	39.37		10.466	10.460	-24.77		-1.22	0.000
487.40	31.047	12.332	39.30		10.509	10.497	-0.53		-1.22	0.000
487.67	31.106	12.031	39.24		10.540	10.536	26.09		-1.23	0.000
487.94	31.147	11.707	39.20		10.573	10.573	28.27		-1.23	0.000
488.21	31.205	11.334	39.14		10.607	10.611	35.15		-1.23	0.000
488.49	31.260	10.950	39.09		10.639	10.646	50.64		-1.23	0.000
488.76	31.314	10.529	39.04		10.668	10.678	89.46		-1.23	0.000
489.03	31.350	10.084	39.00		10.701	10.713	100.35		-1.23	0.000
489.31	31.397	9.603	38.95		10.735	10.742	56.91		-1.23	0.000
489.58	31.444	9.099	38.91		10.758	10.753	27.45		-1.23	0.000
489.85	31.476	8.570	38.87		10.782	10.782	-18.77		-1.23	0.000
490.13	31.515	8.029	38.83		10.798	10.807	-38.72		-1.23	0.000
490.41	31.554	7.464	38.80		10.825	10.836	-61.48		-1.23	0.000
490.69	31.590	6.851	38.76		10.838	10.856	-61.81		-1.23	0.000
490.96	31.610	6.226	38.74		10.861	10.877	-79.55		-1.23	0.000
491.24	31.642	5.601	38.71		10.874	10.893	-107.35		-1.23	0.000
491.52	31.667	4.964	38.68		10.883	10.914	-207.14		-1.23	0.000
491.80	31.688	4.291	38.66		10.895	10.934	-269.85		-1.23	0.000
492.07	31.704	3.618	38.65		10.889	10.948	-385.82		-1.23	0.000
492.34	31.721	2.933	38.63		10.903	10.962	-418.00		-1.23	0.000
492.61	31.731	2.236	38.62		10.906	10.970	-462.22		-1.23	0.000
492.89	31.740	1.563	38.61		10.914	10.977	-473.89		-1.23	0.000
493.16	31.741	0.865	38.61		10.917	10.979	-464.75		-1.23	0.000
493.43	31.744	0.156	38.61		10.912	10.983	-454.04		-1.23	0.000
493.71	31.744	-0.529	38.61		10.914	10.984	-408.96		-1.23	0.000
493.98	31.744	-1.190	38.61		10.912	10.985	-372.61		-1.23	0.000
494.25	31.744	-1.899	38.61		10.911	10.985	-326.98		-1.23	0.000
494.52	31.744	-2.584	38.61		10.906	10.981	-315.91		-1.23	0.000
494.80	31.727	-3.257	38.62		10.902	10.976	-299.24		-1.23	0.000
495.08	31.713	-3.918	38.64		10.900	10.975	-277.90		-1.23	0.000
495.36	31.690	-4.603	38.66		10.897	10.974	-194.75		-1.23	0.000
495.63	31.664	-5.252	38.69		10.892	10.972	-104.50		-1.23	0.000
495.91	31.638	-5.901	38.71		10.881	10.969	-78.79		-1.23	0.000
496.19	31.618	-6.514	38.73		10.869	10.964	-75.85		-1.23	0.000
496.46	31.583	-7.127	38.77		10.867	10.955	-82.53		-1.23	0.000
496.74	31.544	-7.716	38.81		10.865	10.949	-123.16		-1.23	0.000
497.02	31.505	-8.281	38.84		10.864	10.944	-131.75		-1.23	0.000
497.29	31.462	-8.846	38.89		10.858	10.942	-99.77		-1.23	0.000
497.57	31.432	-9.363	38.92		10.843	10.938	-63.41		-1.23	0.000
497.85	31.382	-9.856	38.97		10.851	10.932	13.33		-1.23	0.000
498.13	31.333	-10.325	39.02		10.830	10.920	35.19		-1.23	0.000
498.40	31.281	-10.769	39.07		10.807	10.902	48.93		-1.23	0.000
498.67	31.242	-11.178	39.11		10.783	10.883	44.55		-1.23	0.000
498.95	31.187	-11.550	39.16		10.760	10.861	27.49		-1.23	0.000
499.22	31.128	-11.899	39.22		10.735	10.837	23.21		-1.23	0.000
499.50	31.086	-12.212	39.26		10.709	10.814	8.38		-1.23	0.000
499.76	31.026	-12.488	39.32		10.683	10.800	20.80		-1.23	0.000
500.04	30.963	-12.740	39.39		10.653	10.768	31.43		-1.23	0.000
500.31	30.897	-12.957	39.45		10.628	10.742	31.23		-1.23	0.000
500.59	30.854	-13.137	39.50		10.598	10.716	-4.96		-1.23	0.000
500.87	30.790	-13.281	39.56		10.573	10.690	-34.13		-1.23	0.000
501.15	30.723	-13.389	39.63		10.548	10.666	-87.44		-1.23	0.000
501.43	30.655	-13.462	39.69		10.523	10.638	-114.81		-1.23	0.000
501.71	30.609	-13.498	39.74		10.497	10.614	-120.75		-1.23	0.000
501.99	30.542	-13.498	39.81		10.469	10.586	-128.07		-1.23	0.000
502.26	30.474	-13.462	39.88		10.442	10.554	-130.06		-1.23	0.000
502.54	30.408	-13.389	39.94		10.419	10.525	-156.78		-1.23	0.000
502.82	30.364	-13.281	39.99		10.392	10.498	-165.98		-1.23	0.000
503.09	30.298	-13.137	40.05		10.358	10.476	-151.01		-1.23	0.000
503.37	30.233	-12.957	40.12		10.320	10.459	-126.26		-1.23	0.000
503.65	30.168	-12.728	40.18		10.285	10.428	-50.25		-1.23	0.000
503.92	30.127	-12.476	40.22		10.251	10.393	-12.93		-1.23	0.000
504.20	30.064	-12.200	40.29		10.225	10.357	69.43		-1.23	0.000
504.46	30.005	-11.887	40.34		10.192	10.322	102.29		-1.23	0.000
504.75	29.946	-11.526	40.40		10.157	10.286	162.29		-1.23	0.000
505.02	29.908	-11.154	40.44		10.126	10.254	185.51		-1.23	0.000
505.30	29.853	-10.733	40.50		10.092	10.218	233.36		-1.23	0.000
505.58	29.801	-10.300	40.55		10.066	10.184	283.85		-1.23	0.000
505.86	29.751	-9.832	40.60		10.038	10.155	309.42		-1.23	0.000
506.14	29.703	-9.327	40.65		10.012	10.127	342.75		-1.23	0.000
506.42	29.672	-8.798	40.68		9.990	10.100	351.27		-1.23	0.000
506.69	29.631	-8.245	40.72		9.964	10.080	353.74		-1.23	0.000
506.97	29.590	-7.668	40.76		9.943	10.058	341.78		-1.23	0.000
507.24	29.567	-7.079	40.78		9.953	10.043	304.18		-1.23	0.000
507.51	29.531	-6.478	40.82		9.934	10.015	288.17		-1.23	0.000
507.79	29.501	-5.853	40.85		9.921	9.992	269.37		-1.23	0.000
508.06	29.478	-5.228	40.87		9.906	9.974	270.97		-1.23	0.000
508.34	29.459	-4.579	40.89		9.896	9.963	279.28		-1.23	0.000
508.60	29.441	-3.918	40.91		9.888	9.950	276.90		-1.23	0.000
508.88	29.422	-3.245	40.93		9.872	9.942	262.62		-1.23	0.000
509.15	29.407	-2.572	40.94		9.870	9.933	255.85		-1.23	0.000
509.42	29.403	-1.875	40.95		9.862	9.924	247.63		-1.23	0.000
509.69	29.395	-1.202	40.96		9.846	9.917	250.01		-1.23	0.000
509.96	29.390	-0.505	40.96		9.849	9.916	266.27		-1.23	0.000
510.22	29.390	0.156	40.96		9.849	9.913	276.35		-1.23	0.000
510.49	29.390	0.853	40.96		9.853	9.911	293.75		-1.23	0.000
510.76	29.390	1.514	40.96		9.853	9.912	300.00		-1.23	0.000
511.03	29.390	2.200	40.96		9.856	9.912	300.97		-1.23	0.000
511.30	29.398	2.873	40.95		9.855	9.912	295.81		-1.23	0.000
511.57	29.415	3.522	40.93		9.861	9.912	278.69		-1.23	0.000
511.84	29.426	4.183	40.92		9.855	9.912	273.76		-1.23	0.000
512.11	29.453	4.844	40.90		9.858	9.913	255.52		-1.23	0.000
512.38	29.480	5.481	40.87		9.852	9.918	239.18		-1.23	0.000
512.65	29.498	6.106	40.85		9.856	9.920	204.07		-1.23	0.000
512.92	29.531	6.707	40.82		9.858	9.920	187.75		-1.23	0.000
513.19	29.567	7.284	40.78		9.858	9.922	142.91		-1.23	0.000
513.46	29.590	7.861	40.76		9.866	9.920	113.45		-1.23	0.000
513.73	29.632	8.413	40.72		9.878	9.921	53.69		-1.23	0.000
514.01	29.676	8.942	40.67		9.897	9.925	35.57		-1.23	0.000
514.28	29.721	9.447	40.63		9.913	9.927	19.74		-1.23	0.000
514.55	29.754	9.928	40.60		9.920	9.937	22.91		-1.23	0.000
514.82	29.805	10.385	40.54		9.944	9.951	1.34		-1.23	0.000
515.09	29.858	10.817	40.49		9.959	9.970	-12.46		-1.23	0.000
515.36	29.895	11.214	40.46		9.982	9.987	-51.71		-1.23	0.000
515.63	29.951	11.587	40.40		10.006	10.010	-65.05		-1.23	0.000
515.91	30.010	11.923	40.34		9.995	10.029	-78.20		-1.23	0.000
516.19	30.050	12.236	40.30		10.023	10.050	-68.84		-1.23	0.000
516.45	30.112	12.512	40.24		10.046	10.073	-38.16		-1.23	0.000
516.74	30.176	12.764	40.17		10.072	10.097	-24.73		-1.23	0.000
517.01	30.241	12.969	40.11		10.097	10.112	-16.13		-1.23	0.000
517.28	30.285	13.149	40.07		10.123	10.137	-16.71		-1.23	0.000
517.56	30.350	13.293	40.00		10.146	10.159	-46.59		-1.23	0.000
517.82	30.415	13.401	39.93		10.171	10.185	-47.91		-1.23	0.000
518.11	30.482	13.474	39.87		10.196	10.209	-52.31		-1.23	0.000
518.37	30.528	13.498	39.82		10.223	10.230	-44.30		-1.23	0.000
518.65	30.595	13.498	39.76		10.253	10.256	-43.87		-1.23	0.000
518.93	30.663	13.462	39.69		10.267	10.279	-58.30		-1.23	0.000
519.21	30.730	13.389	39.62		10.290	10.307	-100.24		-1.23	0.000
519.48	30.774	13.281	39.58		10.320	10.336	-121.75		-1.23	0.000
519.77	30.840	13.125	39.51		10.357	10.362	-146.80		-1.23	0.000
520.04	30.905	12.957	39.44		10.397	10.398	-154.18		-1.23	0.000
520.32	30.969	12.728	39.38		10.433	10.416	-141.53		-1.23	0.000
520.59	31.012	12.476	39.34		10.470	10.456	-126.15		-1.23	0.000
520.87	31.073	12.188	39.28		10.502	10.493	-122.37		-1.23	0.000
521.15	31.135	11.875	39.22		10.537	10.531	-127.34		-1.23	0.000
521.43	31.192	11.514	39.16		10.568	10.567	-128.91		-1.23	0.000
521.70	31.228	11.130	39.12		10.601	10.603	-83.36		-1.23	0.000
521.98	31.285	10.721	39.07		10.633	10.637	-44.55		-1.23	0.000
522.25	31.337	10.276	39.01		10.666	10.668	25.46		-1.23	0.000
522.52	31.387	9.796	38.96		10.694	10.701	58.89		-1.23	0.000
522.79	31.418	9.315	38.93		10.721	10.731	80.97		-1.23	0.000
523.07	31.464	8.810	38.89		10.742	10.757	68.54		-1.23	0.000
523.34	31.506	8.269	38.84		10.768	10.786	54.02		-1.23	0.000
523.61	31.533	7.704	38.82		10.788	10.796	53.74		-1.23	0.000
523.88	31.569	7.115	38.78		10.809	10.815	73.46		-1.23	0.000
524.16	31.604	6.526	38.75		10.829	10.840	79.34		-1.23	0.000
524.43	31.633	5.913	38.72		10.847	10.865	67.13		-1.23	0.000
524.70	31.654	5.288	38.70		10.832	10.883	40.26		-1.23	0.000
524.98	31.678	4.639	38.67		10.845	10.899	-24.94		-1.23	0.000
525.25	31.694	3.978	38.66		10.857	10.913	-66.52		-1.23	0.000
525.53	31.713	3.305	38.64		10.866	10.927	-152.33		-1.23	0.000
525.80	31.726	2.620	38.62		10.872	10.938	-186.19		-1.23	0.000
526.08	31.735	1.923	38.62		10.879	10.945	-247.60		-1.23	0.000
526.35	31.738	1.226	38.61		10.883	10.947	-282.56		-1.23	0.000
526.62	31.746	0.541	38.60		10.888	10.953	-354.37		-1.23	0.000
526.89	31.746	-0.132	38.60		10.887	10.956	-377.51		-1.23	0.000
527.17	31.746	-0.841	38.60		10.892	10.956	-409.37		-1.23	0.000
527.44	31.746	-1.526	38.60		10.888	10.955	-411.31		-1.23	0.000
527.71	31.746	-2.212	38.60		10.886	10.951	-405.38		-1.23	0.000
527.98	31.737	-2.909	38.61		10.884	10.950	-397.07		-1.23	0.000
528.26	31.718	-3.582	38.63		10.881	10.950	-381.42		-1.23	0.000
528.53	31.706	-4.231	38.64		10.878	10.948	-361.87		-1.23	0.000
528.81	31.682	-4.904	38.67		10.873	10.944	-308.38		-1.23	0.000
529.09	31.654	-5.541	38.70		10.865	10.944	-235.80		-1.23	0.000
529.37	31.626	-6.178	38.72		10.855	10.940	-195.95		-1.23	0.000
529.65	31.604	-6.803	38.75		10.849	10.938	-134.68		-1.23	0.000
529.92	31.567	-7.392	38.78		10.844	10.928	-121.28		-1.23	0.000
530.20	31.528	-7.981	38.82		10.857	10.922	-131.05		-1.23	0.000
530.48	31.487	-8.546	38.86		10.855	10.919	-153.88		-1.23	0.000
530.75	31.444	-9.075	38.91		10.852	10.915	-209.12		-1.23	0.000
531.03	31.412	-9.591	38.94		10.834	10.913	-236.72		-1.23	0.000
531.32	31.362	-10.072	38.99		10.815	10.902	-314.76		-1.23	0.000
531.59	31.310	-10.529	39.04		10.793	10.888	-346.66		-1.23	0.000
531.87	31.256	-10.974	39.09		10.768	10.870	-381.55		-1.23	0.000
532.15	31.221	-11.358	39.13		10.746	10.846	-386.20		-1.23	0.000
532.43	31.164	-11.731	39.19		10.723	10.821	-372.77		-1.23	0.000
532.70	31.103	-12.067	39.25		10.697	10.797	-357.50		-1.23	0.000
532.98	31.041	-12.368	39.31		10.672	10.770	-306.50		-1.23	0.000
533.26	31.000	-12.632	39.35		10.646	10.747	-256.72		-1.23	0.000
533.54	30.937	-12.861	39.41		10.618	10.738	-216.13		-1.23	0.000
533.81	30.871	-13.065	39.48		10.584	10.712	-102.58		-1.23	0.000
534.09	30.806	-13.221	39.54		10.556	10.682	-37.05		-1.23	0.000
534.36	30.760	-13.353	39.59		10.532	10.653	84.25		-1.23	0.000
534.64	30.694	-13.438	39.66		10.509	10.628	120.67		-1.23	0.000
534.92	30.626	-13.486	39.72		10.481	10.597	124.65		-1.23	0.000
535.19	30.559	-13.510	39.79		10.453	10.572	97.48		-1.23	0.000
535.47	30.515	-13.486	39.83		10.428	10.551	9.62		-1.23	0.000
535.75	30.447	-13.425	39.90		10.406	10.521	-39.50		-1.23	0.000
536.03	30.380	-13.329	39.97		10.377	10.493	-96.60		-1.23	0.000
536.31	30.314	-13.209	40.04		10.349	10.464	-107.14		-1.23	0.000
536.59	30.248	-13.029	40.10		10.311	10.440	-127.70		-1.23	0.000
536.86	30.205	-12.825	40.14		10.271	10.407	-137.58		-1.23	0.000
537.15	30.141	-12.584	40.21		10.238	10.372	-166.93		-1.23	0.000
537.42	30.080	-12.320	40.27		10.222	10.334	-215.35		-1.23	0.000
537.70	30.019	-12.007	40.33		10.190	10.300	-221.72		-1.23	0.000
537.98	29.980	-11.671	40.37		10.155	10.279	-199.68		-1.23	0.000
538.26	29.922	-11.298	40.43		10.123	10.248	-172.50		-1.23	0.000
538.54	29.865	-10.889	40.48		10.091	10.213	-95.28		-1.23	0.000
538.81	29.813	-10.457	40.54		10.061	10.182	-51.12		-1.23	0.000
539.09	29.780	-10.000	40.57		10.030	10.150	22.82		-1.23	0.000
539.37	29.732	-9.507	40.62		10.005	10.120	52.64		-1.23	0.000
539.64	29.685	-8.990	40.67		9.979	10.092	74.72		-1.23	0.000
539.92	29.641	-8.462	40.71		9.955	10.066	72.67		-1.23	0.000
540.19	29.613	-7.897	40.74		9.932	10.045	94.17		-1.23	0.000
540.46	29.577	-7.320	40.77		9.912	10.022	112.08		-1.23	0.000
540.74	29.541	-6.731	40.81		9.923	10.000	136.72		-1.23	0.000
541.01	29.509	-6.118	40.84		9.906	9.980	134.84		-1.23	0.000
541.28	29.491	-5.481	40.86		9.893	9.971	96.15		-1.23	0.000
541.55	29.465	-4.844	40.88		9.880	9.952	64.90		-1.23	0.000
541.82	29.444	-4.183	40.91		9.869	9.939	9.83		-1.23	0.000
542.09	29.433	-3.534	40.92		9.861	9.929	-5.81		-1.23	0.000
542.36	29.418	-2.861	40.93		9.855	9.918	-22.16		-1.23	0.000
542.63	29.404	-2.187	40.95		9.852	9.904	-35.24		-1.23	0.000
542.91	29.400	-1.502	40.95		9.828	9.895	-68.81		-1.23	0.000
543.18	29.395	-0.817	40.96		9.826	9.889	-96.12		-1.23	0.000
543.45	29.392	-0.120	40.96		9.827	9.885	-127.47		-1.23	0.000
543.71	29.392	0.553	40.96		9.830	9.885	-131.39		-1.23	0.000
543.98	29.392	1.238	40.96		9.829	9.884	-106.70		-1.23	0.000
544.25	29.392	1.911	40.96		9.832	9.886	-84.05		-1.23	0.000
544.51	29.392	2.584	40.96		9.834	9.891	-43.81		-1.23	0.000
544.78	29.408	3.257	40.94		9.848	9.895	-36.71		-1.23	0.000
545.06	29.428	3.906	40.92		9.848	9.896	-51.96		-1.23	0.000
545.33	29.451	4.555	40.90		9.849	9.895	-74.35		-1.23	0.000
545.60	29.464	5.204	40.89		9.848	9.896	-99.36		-1.23	0.000
545.88	29.495	5.841	40.86		9.849	9.896	-113.47		-1.23	0.000
546.15	29.526	6.466	40.82		9.848	9.897	-127.97		-1.23	0.000
546.42	29.548	7.067	40.80		9.850	9.895	-132.68		-1.23	0.000
546.69	29.585	7.644	40.77		9.849	9.898	-144.80		-1.23	0.000
546.96	29.626	8.209	40.72		9.856	9.900	-147.40		-1.23	0.000
547.24	29.668	8.738	40.68		9.863	9.903	-158.30		-1.23	0.000
547.51	29.698	9.255	40.65		9.877	9.910	-171.70		-1.23	0.000
547.79	29.746	9.760	40.60		9.892	9.922	-217.16		-1.23	0.000
548.06	29.796	10.228	40.55		9.912	9.935	-243.97		-1.23	0.000
548.34	29.830	10.673	40.52		9.934	9.952	-253.44		-1.23	0.000
548.62	29.883	11.082	40.47		9.956	9.958	-242.70		-1.23	0.000
548.89	29.941	11.478	40.41		9.979	9.975	-207.71		-1.23	0.000
549.16	29.998	11.827	40.35		10.004	9.994	-196.06		-1.23	0.000
549.44	30.039	12.151	40.31		10.028	10.016	-190.60		-1.23	0.000
549.72	30.101	12.428	40.25		10.053	10.042	-197.50		-1.23	0.000
550.00	30.163	12.692	40.19		10.076	10.064	-204.74		-1.23	0.000
550.27	30.228	12.921	40.12		10.068	10.089	-204.43		-1.23	0.000
550.55	30.272	13.113	40.08		10.093	10.114	-189.68		-1.23	0.000
550.83	30.337	13.257	40.01		10.114	10.138	-140.66		-1.23	0.000
551.10	30.403	13.377	39.95		10.138	10.161	-122.27		-1.23	0.000
551.38	30.469	13.462	39.88		10.163	10.185	-125.19		-1.23	0.000
551.66	30.537	13.498	39.81		10.188	10.204	-142.79		-1.23	0.000
551.93	30.582	13.510	39.77		10.214	10.234	-202.78		-1.23	0.000
552.22	30.650	13.474	39.70		10.240	10.265	-237.65		-1.23	0.000
552.50	30.717	13.401	39.63		10.265	10.280	-287.48		-1.23	0.000
552.77	30.785	13.305	39.57		10.303	10.304	-296.81		-1.23	0.000
553.05	30.827	13.161	39.52		10.341	10.330	-278.11		-1.23	0.000
553.32	30.892	12.993	39.46		10.381	10.364	-262.20		-1.23	0.000
553.60	30.958	12.776	39.39		10.411	10.400	-232.91		-1.23	0.000
553.87	31.022	12.536	39.33		10.448	10.441	-204.79		-1.23	0.000
554.16	31.062	12.248	39.29		10.483	10.478	-180.11		-1.23	0.000
554.44	31.123	11.935	39.23		10.518	10.514	-104.98		-1.23	0.000
554.71	31.181	11.575	39.17		10.550	10.544	-54.36		-1.23	0.000
554.98	31.238	11.202	39.11		10.583	10.582	63.59		-1.23	0.000
555.25	31.276	10.793	39.07		10.613	10.612	120.31		-1.23	0.000
555.52	31.328	10.373	39.02		10.641	10.643	163.88		-1.23	0.000
555.80	31.378	9.916	38.97		10.668	10.663	157.05		-1.23	0.000
556.07	31.412	9.423	38.94		10.694	10.693	132.86		-1.23	0.000
556.35	31.458	8.906	38.89		10.709	10.726	108.32		-1.23	0.000
556.62	31.500	8.377	38.85		10.736	10.752	37.77		-1.23	0.000
556.89	31.541	7.825	38.81		10.757	10.774	-11.18		-1.23	0.000
557.17	31.564	7.248	38.79		10.782	10.797	-119.60		-1.23	0.000
557.45	31.599	6.647	38.75		10.802	10.823	-175.12		-1.23	0.000
557.72	31.628	6.022	38.72		10.821	10.845	-277.53		-1.23	0.000
558.00	31.658	5.385	38.69		10.837	10.863	-329.40		-1.23	0.000
558.28	31.676	4.736	38.67		10.852	10.878	-430.70		-1.23	0.000
558.56	31.696	4.050	38.65		10.860	10.893	-465.32		-1.23	0.000
558.83	31.715	3.377	38.63		10.867	10.904	-523.10		-1.23	0.000
559.10	31.726	2.692	38.62		10.874	10.914	-548.59		-1.23	0.000
559.38	31.738	2.007	38.61		10.882	10.920	-554.14		-1.23	0.000
559.65	31.741	1.322	38.61		10.864	10.928	-535.86		-1.23	0.000
559.92	31.745	0.625	38.61		10.861	10.935	-469.30		-1.23	0.000
560.19	31.746	-0.060	38.60		10.860	10.937	-423.80		-1.23	0.000
560.47	31.747	-0.745	38.60		10.860	10.937	-325.09		-1.23	0.000
560.74	31.747	-1.430	38.60		10.859	10.937	-275.62		-1.23	0.000
561.01	31.747	-2.127	38.60		10.857	10.935	-169.13		-1.23	0.000
561.29	31.741	-2.812	38.61		10.855	10.933	-97.76		-1.23	0.000
561.56	31.724	-3.498	38.63		10.853	10.930	-69.48		-1.23	0.000
561.84	31.705	-4.159	38.64		10.852	10.929	-32.35		-1.23	0.000
562.12	31.682	-4.820	38.67		10.868	10.927	-21.32		-1.23	0.000
562.40	31.664	-5.481	38.69		10.863	10.926	-20.37		-1.23	0.000
562.67	31.635	-6.118	38.72		10.853	10.922	-35.19		-1.23	0.000
562.95	31.603	-6.743	38.75		10.843	10.918	-93.20		-1.23	0.000
563.23	31.567	-7.344	38.78		10.839	10.909	-140.21		-1.23	0.000
563.51	31.541	-7.933	38.81		10.835	10.904	-251.02		-1.23	0.000
563.78	31.500	-8.486	38.85		10.833	10.901	-306.41		-1.23	0.000
564.06	31.456	-9.026	38.89		10.827	10.898	-372.61		-1.23	0.000
564.34	31.408	-9.531	38.94		10.808	10.891	-377.99		-1.23	0.000
564.63	31.359	-10.024	38.99		10.788	10.882	-353.58		-1.23	0.000
564.90	31.326	-10.493	39.02		10.764	10.868	-338.51		-1.23	0.000
565.18	31.273	-10.925	39.08		10.738	10.849	-321.13		-1.23	0.000
565.46	31.215	-11.322	39.13		10.714	10.828	-309.72		-1.23	0.000
565.73	31.159	-11.695	39.19		10.691	10.805	-306.84		-1.23	0.000
566.01	31.121	-12.043	39.23		10.685	10.785	-260.02		-1.23	0.000
566.28	31.059	-12.332	39.29		10.661	10.759	-224.94		-1.23	0.000
566.56	30.996	-12.608	39.35		10.635	10.746	-152.31		-1.23	0.000
566.84	30.933	-12.837	39.42		10.610	10.719	-128.48		-1.23	0.000
567.12	30.890	-13.041	39.46		10.584	10.690	-126.17		-1.23	0.000
567.40	30.823	-13.209	39.53		10.557	10.666	-142.82		-1.23	0.000
567.68	30.758	-13.341	39.59		10.532	10.636	-196.16		-1.23	0.000
567.95	30.690	-13.438	39.66		10.508	10.607	-215.99		-1.23	0.000
568.24	30.645	-13.486	39.71		10.479	10.586	-210.06		-1.23	0.000
568.51	30.578	-13.510	39.77		10.452	10.562	-193.09		-1.23	0.000
568.79	30.510	-13.486	39.84		10.424	10.533	-144.10		-1.23	0.000
569.07	30.444	-13.438	39.91		10.404	10.503	-141.96		-1.23	0.000
569.34	30.398	-13.341	39.95		10.368	10.477	-144.33		-1.23	0.000
569.63	30.333	-13.209	40.02		10.339	10.448	-144.30		-1.23	0.000
569.91	30.267	-13.053	40.08		10.304	10.423	-127.40		-1.23	0.000
570.19	30.203	-12.849	40.15		10.264	10.392	-78.34		-1.23	0.000
570.46	30.137	-12.608	40.21		10.229	10.355	-56.36		-1.23	0.000
570.74	30.096	-12.332	40.25		10.195	10.320	-29.57		-1.23	0.000
571.02	30.035	-12.019	40.32		10.165	10.304	-26.56		-1.23	0.000
571.30	29.977	-11.695	40.37		10.131	10.267	-18.63		-1.23	0.000
571.57	29.919	-11.322	40.43		10.100	10.233	-16.85		-1.23	0.000
571.85	29.881	-10.913	40.47		10.071	10.199	-2.56		-1.23	0.000
572.12	29.830	-10.481	40.52		10.042	10.165	-3.27		-1.23	0.000
572.40	29.778	-10.036	40.57		10.014	10.136	-10.65		-1.23	0.000
572.67	29.728	-9.555	40.62		9.988	10.107	-18.98		-1.23	0.000
572.95	29.699	-9.038	40.65		9.985	10.080	-40.27		-1.23	0.000
573.22	29.654	-8.510	40.70		9.961	10.052	-53.58		-1.23	0.000
573.50	29.613	-7.957	40.74		9.937	10.029	-70.80		-1.23	0.000
573.77	29.576	-7.380	40.77		9.916	10.004	-97.00		-1.23	0.000
574.05	29.553	-6.779	40.80		9.897	9.982	-114.03		-1.23	0.000
574.34	29.518	-6.178	40.83		9.880	9.964	-171.05		-1.23	0.000
574.61	29.490	-5.529	40.86		9.868	9.957	-206.76		-1.23	0.000
574.89	29.468	-4.856	40.88		9.853	9.938	-255.12		-1.23	0.000
575.17	29.442	-4.195	40.91		9.841	9.921	-261.36		-1.23	0.000
575.45	29.431	-3.510	40.92		9.831	9.914	-261.78		-1.23	0.000
575.72	29.418	-2.825	40.93		9.823	9.903	-254.26		-1.23	0.000
576.00	29.403	-2.127	40.95		9.817	9.891	-232.67		-1.23	0.000
576.27	29.400	-1.442	40.95		9.830	9.883	-224.40		-1.23	0.000
576.54	29.396	-0.745	40.95		9.828	9.879	-227.21		-1.23	0.000
576.81	29.395	-0.048	40.96		9.829	9.878	-220.36		-1.23	0.000
577.08	29.395	0.625	40.96		9.831	9.874	-201.27		-1.23	0.000
577.34	29.395	1.310	40.96		9.831	9.874	-177.99		-1.23	0.000
577.61	29.395	1.995	40.96		9.831	9.872	-101.26		-1.23	0.000
577.88	29.395	2.656	40.96		9.833	9.874	-54.35		-1.23	0.000
578.15	29.412	3.329	40.94		9.814	9.877	23.45		-1.23	0.000
578.42	29.431	3.978	40.92		9.814	9.878	50.94		-1.23	0.000
578.69	29.451	4.627	40.90		9.816	9.877	75.06		-1.23	0.000
578.95	29.469	5.264	40.88		9.818	9.876	82.45		-1.23	0.000
579.23	29.498	5.889	40.85		9.817	9.878	113.69		-1.23	0.000
579.50	29.528	6.502	40.82		9.819	9.881	136.73		-1.23	0.000
579.78	29.550	7.103	40.80		9.818	9.882	160.90		-1.23	0.000
580.05	29.589	7.680	40.76		9.819	9.882	165.87		-1.23	0.000
580.32	29.628	8.269	40.72		9.827	9.881	159.41		-1.23	0.000
580.60	29.671	8.798	40.68		9.853	9.882	152.19		-1.23	0.000
580.87	29.700	9.303	40.65		9.864	9.890	132.44		-1.23	0.000
581.14	29.749	9.796	40.60		9.876	9.901	116.67		-1.23	0.000
581.41	29.800	10.264	40.55		9.892	9.913	80.96		-1.23	0.000
581.68	29.833	10.697	40.52		9.913	9.925	60.59		-1.23	0.000
581.96	29.890	11.106	40.46		9.932	9.942	22.67		-1.23	0.000
582.22	29.944	11.478	40.41		9.954	9.952	1.96		-1.23	0.000
582.49	29.985	11.839	40.37		9.975	9.977	-21.75		-1.23	0.000
582.76	30.044	12.139	40.31		9.982	10.005	-25.17		-1.23	0.000
583.04	30.105	12.428	40.24		10.008	10.029	-27.20		-1.23	0.000
583.32	30.168	12.680	40.18		10.032	10.050	-34.27		-1.23	0.000
583.59	30.212	12.909	40.14		10.056	10.073	-56.04		-1.23	0.000
583.87	30.277	13.101	40.07		10.080	10.097	-79.77		-1.23	0.000
584.15	30.341	13.257	40.01		10.106	10.123	-127.37		-1.23	0.000
584.43	30.408	13.365	39.94		10.130	10.147	-155.64		-1.23	0.000
584.71	30.454	13.450	39.90		10.157	10.170	-193.98		-1.23	0.000
584.99	30.521	13.498	39.83		10.184	10.193	-208.89		-1.23	0.000
585.27	30.589	13.510	39.76		10.211	10.215	-212.24		-1.23	0.000
585.54	30.655	13.474	39.69		10.237	10.242	-223.26		-1.23	0.000
585.82	30.700	13.413	39.65		10.261	10.254	-226.44		-1.23	0.000
586.09	30.768	13.305	39.58		10.257	10.281	-222.61		-1.23	0.000
586.37	30.833	13.161	39.52		10.295	10.305	-209.96		-1.23	0.000
586.65	30.899	12.993	39.45		10.334	10.337	-165.51		-1.23	0.000
586.92	30.941	12.776	39.41		10.373	10.371	-149.42		-1.23	0.000
587.20	31.005	12.536	39.34		10.413	10.412	-148.65		-1.23	0.000
587.48	31.067	12.260	39.28		10.446	10.450	-147.66		-1.23	0.000
587.76	31.127	11.947	39.22		10.482	10.488	-125.17		-1.23	0.000
588.03	31.185	11.599	39.17		10.515	10.524	-99.79		-1.23	0.000
588.31	31.224	11.226	39.13		10.548	10.561	-42.84		-1.23	0.000
588.59	31.278	10.805	39.07		10.580	10.596	-17.04		-1.23	0.000
588.86	31.331	10.373	39.02		10.609	10.628	16.55		-1.23	0.000
589.13	31.367	9.904	38.98		10.637	10.659	17.98		-1.23	0.000
589.41	31.415	9.423	38.93		10.670	10.691	-12.84		-1.23	0.000
589.68	31.462	8.918	38.89		10.693	10.704	-54.77		-1.23	0.000
589.96	31.503	8.377	38.85		10.716	10.732	-47.16		-1.23	0.000
590.23	31.530	7.813	38.82		10.737	10.752	-4.67		-1.23	0.000
590.50	31.567	7.236	38.78		10.756	10.775	18.84		-1.23	0.000
590.77	31.603	6.635	38.75		10.776	10.799	17.49		-1.23	0.000
591.04	31.623	6.022	38.73		10.791	10.824	-2.00		-1.23	0.000
591.33	31.651	5.409	38.70		10.805	10.843	-50.93		-1.23	0.000
591.60	31.677	4.760	38.67		10.816	10.857	-74.45		-1.23	0.000
591.87	31.697	4.087	38.65		10.827	10.872	-89.82		-1.23	0.000
592.14	31.708	3.425	38.64		10.827	10.884	-90.92		-1.23	0.000
592.42	31.722	2.752	38.63		10.835	10.892	-64.10		-1.23	0.000
592.68	31.732	2.055	38.62		10.841	10.902	-45.15		-1.23	0.000
592.96	31.738	1.370	38.61		10.843	10.909	-17.92		-1.23	0.000
593.22	31.747	0.685	38.60		10.848	10.911	-5.96		-1.23	0.000
593.49	31.747	0.000	38.60		10.846	10.911	7.88		-1.23	0.000
593.75	31.747	-0.673	38.60		10.847	10.912	21.46		-1.23	0.000
594.02	31.747	-1.334	38.60		10.839	10.913	52.25		-1.23	0.000
594.29	31.746	-2.019	38.60		10.834	10.914	63.31		-1.23	0.000
594.56	31.736	-2.680	38.61		10.832	10.913	73.81		-1.23	0.000
594.84	31.723	-3.341	38.63		10.829	10.912	86.40		-1.23	0.000
595.12	31.701	-4.014	38.65		10.824	10.911	77.34		-1.23	0.000
595.39	31.678	-4.688	38.67		10.820	10.909	62.41		-1.23	0.000
595.67	31.651	-5.349	38.70		10.814	10.906	21.86		-1.23	0.000
595.94	31.633	-5.986	38.72		10.804	10.904	14.74		-1.23	0.000
596.21	31.603	-6.599	38.75		10.796	10.895	12.14		-1.23	0.000
596.49	31.568	-7.200	38.78		10.817	10.888	18.63		-1.23	0.000
596.77	31.542	-7.776	38.81		10.814	10.884	16.59		-1.23	0.000
597.04	31.501	-8.341	38.85		10.813	10.880	11.88		-1.23	0.000
597.31	31.458	-8.882	38.89		10.808	10.878	-5.69		-1.23	0.000
597.59	31.412	-9.387	38.94		10.795	10.876	-29.82		-1.23	0.000
597.87	31.380	-9.880	38.97		10.774	10.870	-76.07		-1.23	0.000
598.15	31.330	-10.361	39.02		10.752	10.854	-84.03		-1.23	0.000
598.43	31.277	-10.793	39.07		10.726	10.837	-55.55		-1.23	0.000
598.71	31.221	-11.202	39.13		10.703	10.817	-31.99		-1.23	0.000
598.99	31.164	-11.599	39.19		10.679	10.794	-13.07		-1.23	0.000
599.27	31.126	-11.947	39.22		10.656	10.767	-32.40		-1.23	0.000
599.55	31.064	-12.260	39.29		10.627	10.744	-38.38		-1.23	0.000
599.83	31.003	-12.548	39.35		10.601	10.720	-23.44		-1.23	0.000
600.11	30.939	-12.788	39.41		10.577	10.697	-6.20		-1.23	0.000
600.37	30.897	-12.993	39.45		10.552	10.671	63.77		-1.23	0.000
600.65	30.831	-13.173	39.52		10.527	10.643	106.02		-1.23	0.000
600.93	30.764	-13.305	39.59		10.500	10.612	185.05		-1.23	0.000
601.21	30.697	-13.413	39.65		10.478	10.587	206.93		-1.23	0.000
601.49	30.653	-13.474	39.70		10.451	10.562	222.34		-1.23	0.000
601.76	30.586	-13.510	39.76		10.423	10.546	224.18		-1.23	0.000
602.05	30.518	-13.498	39.83		10.398	10.520	235.90		-1.23	0.000
602.32	30.451	-13.450	39.90		10.373	10.494	230.51		-1.23	0.000
602.60	30.405	-13.365	39.94		10.348	10.466	202.46		-1.23	0.000
602.87	30.339	-13.257	40.01		10.322	10.440	168.34		-1.23	0.000
603.15	30.274	-13.101	40.08		10.286	10.414	67.59		-1.23	0.000
603.42	30.208	-12.909	40.14		10.249	10.385	7.83		-1.23	0.000
603.70	30.165	-12.680	40.18		10.219	10.353	-114.16		-1.23	0.000
603.98	30.104	-12.428	40.25		10.184	10.315	-194.92		-1.23	0.000
604.26	30.041	-12.139	40.31		10.149	10.276	-223.25		-1.23	0.000
604.53	29.982	-11.803	40.37		10.115	10.238	-277.99		-1.23	0.000
604.81	29.944	-11.442	40.41		10.084	10.207	-313.50		-1.23	0.000
605.08	29.887	-11.058	40.46		10.054	10.176	-369.52		-1.23	0.000
605.37	29.833	-10.637	40.52		10.021	10.148	-393.62		-1.23	0.000
605.64	29.780	-10.192	40.57		9.990	10.135	-417.22		-1.23	0.000
605.92	29.748	-9.712	40.60		9.966	10.105	-417.36		-1.23	0.000
606.20	29.700	-9.207	40.65		9.941	10.073	-386.28		-1.23	0.000
606.48	29.657	-8.678	40.69		9.921	10.044	-369.84		-1.23	0.000
606.76	29.614	-8.113	40.74		9.896	10.022	-336.93		-1.23	0.000
607.03	29.576	-7.536	40.77		9.906	9.999	-327.28		-1.23	0.000
607.31	29.551	-6.935	40.80		9.888	9.974	-317.95		-1.23	0.000
607.58	29.518	-6.334	40.83		9.869	9.954	-302.96		-1.23	0.000
607.86	29.490	-5.697	40.86		9.856	9.935	-283.10		-1.23	0.000
608.14	29.462	-5.060	40.89		9.843	9.918	-268.47		-1.23	0.000
608.42	29.446	-4.399	40.90		9.830	9.905	-255.06		-1.23	0.000
608.69	29.430	-3.726	40.92		9.822	9.893	-217.83		-1.23	0.000
608.96	29.413	-3.041	40.94		9.812	9.881	-202.45		-1.23	0.000
609.23	29.405	-2.356	40.94		9.801	9.877	-154.32		-1.23	0.000
609.50	29.396	-1.683	40.95		9.802	9.868	-137.32		-1.23	0.000
609.78	29.389	-0.998	40.96		9.793	9.863	-128.81		-1.23	0.000
610.05	29.386	-0.313	40.96		9.794	9.860	-140.00		-1.23	0.000
610.32	29.386	0.385	40.96		9.796	9.858	-191.57		-1.23	0.000
610.58	29.386	1.070	40.96		9.798	9.857	-211.63		-1.23	0.000
610.85	29.386	1.755	40.96		9.800	9.857	-229.95		-1.23	0.000
611.12	29.386	2.416	40.96		9.803	9.855	-220.88		-1.23	0.000
611.39	29.400	3.089	40.95		9.804	9.855	-187.99		-1.23	0.000
611.66	29.418	3.750	40.93		9.806	9.854	-167.51		-1.23	0.000
611.94	29.430	4.399	40.92		9.793	9.854	-147.70		-1.23	0.000
612.21	29.455	5.060	40.89		9.794	9.853	-150.52		-1.23	0.000
612.48	29.482	5.697	40.87		9.793	9.852	-157.35		-1.23	0.000
612.76	29.513	6.322	40.84		9.793	9.855	-148.15		-1.23	0.000
613.03	29.536	6.923	40.81		9.795	9.858	-109.66		-1.23	0.000
613.30	29.572	7.512	40.78		9.795	9.862	-95.51		-1.23	0.000
613.58	29.612	8.089	40.74		9.800	9.865	-62.84		-1.23	0.000
613.85	29.639	8.630	40.71		9.809	9.868	-53.77		-1.23	0.000
614.12	29.683	9.159	40.67		9.821	9.869	-54.82		-1.23	0.000
614.39	29.730	9.651	40.62		9.848	9.873	-66.32		-1.23	0.000
614.67	29.781	10.120	40.57		9.863	9.883	-108.98		-1.23	0.000
614.94	29.814	10.565	40.54		9.881	9.898	-123.04		-1.23	0.000
615.21	29.868	10.986	40.48		9.904	9.915	-142.23		-1.23	0.000
615.49	29.924	11.382	40.43		9.924	9.932	-156.30		-1.23	0.000
615.76	29.962	11.743	40.39		9.948	9.952	-186.80		-1.23	0.000
616.04	30.023	12.067	40.33		9.971	9.975	-197.71		-1.23	0.000
616.32	30.085	12.368	40.27		9.996	10.001	-197.27		-1.23	0.000
616.59	30.148	12.632	40.20		10.017	10.024	-187.55		-1.23	0.000
616.87	30.189	12.873	40.16		10.039	10.046	-183.53		-1.23	0.000
617.15	30.254	13.053	40.10		10.061	10.069	-197.22		-1.23	0.000
617.43	30.319	13.221	40.03		10.063	10.090	-240.51		-1.23	0.000
617.71	30.385	13.353	39.97		10.087	10.105	-257.74		-1.23	0.000
617.99	30.453	13.438	39.90		10.113	10.131	-273.28		-1.23	0.000
618.26	30.497	13.498	39.85		10.138	10.156	-255.44		-1.23	0.000
618.54	30.565	13.510	39.78		10.164	10.181	-248.94		-1.23	0.000
618.82	30.632	13.486	39.72		10.192	10.207	-224.14		-1.23	0.000
619.09	30.700	13.425	39.65		10.216	10.234	-216.75		-1.23	0.000
619.37	30.745	13.329	39.61		10.246	10.260	-200.78		-1.23	0.000
619.65	30.810	13.197	39.54		10.287	10.283	-204.83		-1.23	0.000
619.94	30.876	13.029	39.47		10.326	10.311	-216.61		-1.23	0.000
620.21	30.941	12.825	39.41		10.365	10.350	-229.71		-1.23	0.000
620.49	30.982	12.572	39.37		10.404	10.390	-254.89		-1.23	0.000
620.76	31.045	12.308	39.31		10.439	10.429	-267.25		-1.23	0.000
621.05	31.106	11.995	39.24		10.477	10.464	-295.69		-1.23	0.000
621.32	31.165	11.659	39.18		10.481	10.501	-303.74		-1.23	0.000
621.60	31.222	11.274	39.13		10.513	10.536	-303.80		-1.23	0.000
621.87	31.259	10.877	39.09		10.543	10.554	-289.98		-1.23	0.000
622.16	31.313	10.445	39.04		10.575	10.585	-248.41		-1.23	0.000
622.44	31.363	9.988	38.99		10.601	10.620	-193.85		-1.23	0.000
622.71	31.413	9.483	38.94		10.629	10.650	-152.05		-1.23	0.000
622.99	31.442	8.966	38.91		10.653	10.680	-43.78		-1.23	0.000
623.26	31.486	8.438	38.86		10.674	10.708	8.00		-1.23	0.000
623.53	31.528	7.873	38.82		10.697	10.733	76.43		-1.23	0.000
623.80	31.551	7.308	38.80		10.717	10.752	99.41		-1.23	0.000
624.08	31.587	6.707	38.76		10.737	10.772	123.08		-1.23	0.000
624.35	31.621	6.094	38.73		10.768	10.794	127.85		-1.23	0.000
624.62	31.647	5.469	38.70		10.784	10.813	103.03		-1.23	0.000
624.89	31.665	4.820	38.68		10.797	10.831	67.78		-1.23	0.000
625.16	31.687	4.171	38.66		10.806	10.839	-15.23		-1.23	0.000
625.44	31.705	3.510	38.64		10.813	10.855	-52.11		-1.23	0.000
625.71	31.713	2.837	38.64		10.821	10.866	-123.02		-1.23	0.000
625.98	31.724	2.163	38.63		10.824	10.874	-151.26		-1.23	0.000
626.25	31.732	1.478	38.62		10.826	10.880	-175.72		-1.23	0.000
626.52	31.738	0.781	38.61		10.816	10.885	-170.49		-1.23	0.000
626.79	31.740	0.096	38.61		10.816	10.891	-146.91		-1.23	0.000
627.06	31.740	-0.589	38.61		10.815	10.891	-140.08		-1.23	0.000
627.33	31.740	-1.262	38.61		10.813	10.888	-148.02		-1.23	0.000
627.61	31.740	-1.959	38.61		10.812	10.887	-144.70		-1.23	0.000
627.88	31.738	-2.632	38.61		10.812	10.886	-102.85		-1.23	0.000
628.15	31.723	-3.305	38.63		10.812	10.886	-75.56		-1.23	0.000
628.43	31.701	-3.978	38.65		10.812	10.884	-20.75		-1.23	0.000
628.70	31.686	-4.639	38.66		10.808	10.882	4.91		-1.23	0.000
628.98	31.660	-5.288	38.69		10.805	10.880	50.68		-1.23	0.000
629.25	31.633	-5.925	38.72		10.795	10.876	75.19		-1.23	0.000
629.52	31.613	-6.550	38.74		10.786	10.873	112.03		-1.23	0.000
629.80	31.577	-7.139	38.77		10.781	10.868	128.48		-1.23	0.000
630.09	31.540	-7.728	38.81		10.777	10.863	174.34		-1.23	0.000
630.36	31.500	-8.293	38.85		10.776	10.857	193.50		-1.23	0.000
630.64	31.455	-8.858	38.89		10.770	10.852	213.19		-1.23	0.000
630.91	31.426	-9.375	38.92		10.758	10.851	211.35		-1.23	0.000
631.19	31.377	-9.880	38.97		10.737	10.844	186.31		-1.23	0.000
631.47	31.328	-10.337	39.02		10.714	10.834	153.78		-1.23	0.000
631.74	31.274	-10.781	39.08		10.687	10.819	144.62		-1.23	0.000
632.02	31.237	-11.190	39.11		10.665	10.798	141.66		-1.23	0.000
632.29	31.181	-11.563	39.17		10.674	10.774	141.13		-1.23	0.000
632.58	31.122	-11.911	39.23		10.650	10.749	128.80		-1.23	0.000
632.85	31.060	-12.224	39.29		10.624	10.727	110.65		-1.23	0.000
633.13	31.021	-12.512	39.33		10.599	10.705	96.16		-1.23	0.000
633.41	30.956	-12.764	39.39		10.574	10.681	94.60		-1.23	0.000
633.69	30.894	-12.981	39.46		10.545	10.652	84.57		-1.23	0.000
633.97	30.827	-13.149	39.52		10.520	10.627	62.77		-1.23	0.000
634.24	30.785	-13.305	39.57		10.493	10.602	-6.78		-1.23	0.000
634.52	30.717	-13.401	39.63		10.470	10.570	-49.43		-1.23	0.000
634.80	30.649	-13.474	39.70		10.443	10.556	-154.51		-1.23	0.000
635.07	30.582	-13.510	39.77		10.415	10.529	-209.49		-1.23	0.000
635.35	30.536	-13.498	39.81		10.387	10.503	-317.05		-1.23	0.000
635.63	30.469	-13.462	39.88		10.357	10.474	-372.97		-1.23	0.000
635.91	30.401	-13.377	39.95		10.333	10.449	-385.75		-1.23	0.000
636.19	30.337	-13.269	40.01		10.307	10.422	-392.68		-1.23	0.000
636.46	30.291	-13.113	40.06		10.275	10.398	-391.33		-1.23	0.000
636.74	30.227	-12.921	40.12		10.238	10.370	-355.42		-1.23	0.000
637.02	30.164	-12.704	40.19		10.204	10.336	-322.35		-1.23	0.000
637.29	30.099	-12.452	40.25		10.169	10.300	-241.23		-1.23	0.000
637.57	30.059	-12.151	40.29		10.138	10.261	-197.74		-1.23	0.000
637.85	29.999	-11.827	40.35		10.104	10.225	-110.88		-1.23	0.000
638.13	29.941	-11.478	40.41		10.076	10.194	-66.99		-1.23	0.000
638.40	29.885	-11.082	40.47		10.044	10.164	18.61		-1.23	0.000
638.68	29.848	-10.673	40.50		10.015	10.145	52.83		-1.23	0.000
638.96	29.795	-10.216	40.56		9.985	10.112	73.78		-1.23	0.000
639.23	29.745	-9.748	40.61		9.969	10.081	63.20		-1.23	0.000
639.50	29.698	-9.243	40.65		9.942	10.052	46.07		-1.23	0.000
639.77	29.667	-8.726	40.68		9.919	10.024	39.53		-1.23	0.000
640.04	29.624	-8.197	40.73		9.897	10.002	33.92		-1.23	0.000
640.31	29.586	-7.644	40.76		9.873	9.979	32.60		-1.23	0.000
640.59	29.549	-7.055	40.80		9.853	9.954	38.36		-1.23	0.000
640.85	29.528	-6.454	40.82		9.836	9.934	35.68		-1.23	0.000
641.13	29.498	-5.829	40.85		9.822	9.917	5.93		-1.23	0.000
641.41	29.469	-5.216	40.88		9.832	9.911	-32.46		-1.23	0.000
641.69	29.454	-4.543	40.90		9.821	9.893	-115.55		-1.23	0.000
641.96	29.435	-3.894	40.92		9.814	9.879	-138.45		-1.23	0.000
642.24	29.418	-3.197	40.93		9.803	9.867	-133.27		-1.23	0.000
642.51	29.404	-2.512	40.95		9.798	9.857	-118.55		-1.23	0.000
642.78	29.400	-1.827	40.95		9.795	9.851	-114.98		-1.23	0.000
643.06	29.390	-1.130	40.96		9.791	9.844	-111.50		-1.23	0.000
643.33	29.387	-0.433	40.96		9.792	9.840	-122.04		-1.23	0.000
643.60	29.387	0.252	40.96		9.792	9.836	-165.33		-1.23	0.000
643.87	29.387	0.950	40.96		9.794	9.837	-187.21		-1.23	0.000
644.14	29.387	1.635	40.96		9.773	9.838	-177.87		-1.23	0.000
644.41	29.387	2.320	40.96		9.773	9.840	-144.55		-1.23	0.000
644.68	29.395	2.981	40.96		9.774	9.843	-60.18		-1.23	0.000
644.95	29.410	3.654	40.94		9.776	9.845	-30.11		-1.23	0.000
645.22	29.431	4.303	40.92		9.777	9.844	17.39		-1.23	0.000
645.49	29.450	4.952	40.90		9.780	9.844	39.83		-1.23	0.000
645.76	29.476	5.589	40.87		9.781	9.845	78.92		-1.23	0.000
646.03	29.508	6.202	40.84		9.783	9.846	86.24		-1.23	0.000
646.30	29.528	6.803	40.82		9.797	9.846	119.89		-1.23	0.000
646.57	29.564	7.380	40.79		9.798	9.846	146.23		-1.23	0.000
646.84	29.603	7.945	40.75		9.797	9.847	212.45		-1.23	0.000
647.11	29.630	8.498	40.72		9.805	9.849	238.10		-1.23	0.000
647.38	29.674	9.026	40.68		9.816	9.853	265.60		-1.23	0.000
647.66	29.721	9.531	40.63		9.826	9.860	266.51		-1.23	0.000
647.93	29.769	10.000	40.58		9.841	9.870	249.28		-1.23	0.000
648.20	29.803	10.457	40.55		9.858	9.881	232.23		-1.23	0.000
648.47	29.858	10.889	40.49		9.871	9.901	199.60		-1.23	0.000
648.75	29.913	11.274	40.44		9.891	9.920	189.33		-1.23	0.000
649.02	29.951	11.647	40.40		9.915	9.927	173.67		-1.23	0.000
649.28	30.010	11.983	40.34		9.940	9.945	152.72		-1.23	0.000
649.56	30.071	12.284	40.28		9.965	9.969	70.88		-1.23	0.000
649.83	30.112	12.548	40.24		9.990	9.994	17.72		-1.23	0.000
650.10	30.176	12.788	40.17		10.014	10.020	-77.03		-1.23	0.000
650.37	30.241	12.993	40.11		10.039	10.045	-111.64		-1.23	0.000
650.65	30.305	13.161	40.04		10.035	10.066	-146.26		-1.23	0.000
650.92	30.350	13.305	40.00		10.057	10.085	-148.43		-1.23	0.000
651.21	30.415	13.413	39.93		10.080	10.111	-143.88		-1.23	0.000
651.49	30.483	13.474	39.87		10.104	10.132	-142.84		-1.23	0.000
651.77	30.550	13.510	39.80		10.131	10.156	-167.12		-1.23	0.000
652.05	30.618	13.498	39.73		10.154	10.182	-174.48		-1.23	0.000
652.32	30.663	13.450	39.69		10.178	10.200	-168.13		-1.23	0.000
652.60	30.731	13.365	39.62		10.202	10.226	-151.13		-1.23	0.000
652.88	30.797	13.245	39.55		10.238	10.251	-98.40		-1.23	0.000
653.17	30.863	13.101	39.49		10.275	10.280	-78.86		-1.23	0.000
653.44	30.905	12.897	39.44		10.315	10.313	-58.92		-1.23	0.000
653.72	30.969	12.668	39.38		10.353	10.350	-65.63		-1.23	0.000
653.99	31.032	12.404	39.32		10.392	10.389	-77.88		-1.23	0.000
654.27	31.094	12.115	39.26		10.428	10.426	-113.32		-1.23	0.000
654.54	31.133	11.791	39.22		10.462	10.462	-117.34		-1.23	0.000
654.82	31.190	11.442	39.16		10.495	10.498	-111.18		-1.23	0.000
655.10	31.247	11.046	39.10		10.525	10.532	-111.71		-1.23	0.000
655.38	31.301	10.625	39.05		10.556	10.565	-99.77		-1.23	0.000
655.65	31.337	10.168	39.01		10.585	10.597	-101.37		-1.23	0.000
655.93	31.385	9.700	38.97		10.610	10.626	-96.87		-1.23	0.000
656.21	31.433	9.183	38.92		10.635	10.654	-94.28		-1.23	0.000
656.49	31.477	8.654	38.87		10.656	10.667	-100.18		-1.23	0.000
656.76	31.505	8.101	38.84		10.677	10.693	-102.42		-1.23	0.000
657.04	31.544	7.524	38.81		10.698	10.718	-112.74		-1.23	0.000
657.31	31.580	6.935	38.77		10.716	10.745	-105.83		-1.23	0.000
657.59	31.612	6.322	38.74		10.734	10.765	-94.82		-1.23	0.000
657.86	31.635	5.697	38.72		10.743	10.786	-79.77		-1.23	0.000
658.14	31.659	5.060	38.69		10.759	10.810	-37.76		-1.23	0.000
658.41	31.683	4.387	38.67		10.771	10.823	-11.28		-1.23	0.000
658.69	31.701	3.726	38.65		10.781	10.834	-5.25		-1.23	0.000
658.96	31.710	3.053	38.64		10.792	10.843	-5.79		-1.23	0.000
659.23	31.726	2.368	38.62		10.798	10.851	-6.03		-1.23	0.000
659.50	31.735	1.695	38.62		10.803	10.855	-4.85		-1.23	0.000
659.76	31.737	1.010	38.61		10.803	10.863	6.88		-1.23	0.000
660.03	31.740	0.325	38.61		10.787	10.865	14.56		-1.23	0.000
660.30	31.741	-0.349	38.61		10.788	10.866	22.99		-1.23	0.000
660.56	31.741	-1.022	38.61		10.784	10.868	24.74		-1.23	0.000
660.83	31.741	-1.707	38.61		10.783	10.869	25.35		-1.23	0.000
661.10	31.741	-2.368	38.61		10.783	10.869	30.04		-1.23	0.000
661.37	31.730	-3.041	38.62		10.781	10.868	36.68		-1.23	0.000
661.64	31.713	-3.702	38.64		10.778	10.867	32.45		-1.23	0.000
661.91	31.694	-4.351	38.66		10.774	10.863	27.40		-1.23	0.000
662.18	31.674	-5.012	38.68		10.794	10.859	31.69		-1.23	0.000
662.46	31.649	-5.649	38.70		10.787	10.856	47.15		-1.23	0.000
662.74	31.621	-6.262	38.73		10.778	10.851	58.27		-1.23	0.000
663.01	31.586	-6.887	38.76		10.771	10.845	85.46		-1.23	0.000
663.29	31.563	-7.476	38.79		10.768	10.837	103.75		-1.23	0.000
663.57	31.522	-8.041	38.83		10.765	10.832	140.07		-1.23	0.000
663.84	31.482	-8.606	38.87		10.761	10.830	141.58		-1.23	0.000
664.13	31.437	-9.135	38.91		10.755	10.829	136.29		-1.23	0.000
664.40	31.405	-9.651	38.94		10.736	10.823	150.96		-1.23	0.000
664.68	31.356	-10.132	38.99		10.717	10.820	158.59		-1.23	0.000
664.95	31.304	-10.577	39.05		10.691	10.806	139.06		-1.23	0.000
665.23	31.250	-11.010	39.10		10.668	10.789	111.92		-1.23	0.000
665.51	31.195	-11.394	39.16		10.647	10.766	37.42		-1.23	0.000
665.78	31.156	-11.767	39.19		10.625	10.743	-3.85		-1.23	0.000
666.06	31.095	-12.091	39.26		10.602	10.723	-85.58		-1.23	0.000
666.34	31.035	-12.392	39.32		10.577	10.701	-127.87		-1.23	0.000
666.61	30.992	-12.656	39.36		10.550	10.676	-189.55		-1.23	0.000
666.89	30.930	-12.885	39.42		10.524	10.647	-219.54		-1.23	0.000
667.17	30.864	-13.077	39.49		10.498	10.621	-285.81		-1.23	0.000
667.44	30.799	-13.233	39.55		10.474	10.597	-319.56		-1.23	0.000
667.72	30.732	-13.353	39.62		10.449	10.570	-370.63		-1.23	0.000
667.99	30.687	-13.438	39.66		10.423	10.546	-375.59		-1.23	0.000
668.28	30.621	-13.498	39.73		10.399	10.519	-329.71		-1.23	0.000
668.55	30.554	-13.510	39.80		10.373	10.501	-250.39		-1.23	0.000
668.83	30.486	-13.486	39.86		10.346	10.475	-224.19		-1.23	0.000
669.11	30.440	-13.425	39.91		10.322	10.448	-203.87		-1.23	0.000
669.38	30.373	-13.317	39.98		10.295	10.422	-201.62		-1.23	0.000
669.66	30.306	-13.185	40.04		10.267	10.397	-172.62		-1.23	0.000
669.94	30.242	-13.017	40.11		10.229	10.368	-145.94		-1.23	0.000
670.22	30.199	-12.812	40.15		10.192	10.336	-88.03		-1.23	0.000
670.50	30.136	-12.572	40.21		10.158	10.301	-56.95		-1.23	0.000
670.78	30.073	-12.296	40.28		10.125	10.268	-4.75		-1.23	0.000
671.05	30.013	-11.983	40.34		10.093	10.237	14.08		-1.23	0.000
671.32	29.972	-11.635	40.38		10.058	10.205	32.50		-1.23	0.000
671.59	29.915	-11.274	40.43		10.027	10.171	24.70		-1.23	0.000
671.87	29.860	-10.877	40.49		10.031	10.138	32.53		-1.23	0.000
672.14	29.808	-10.457	40.54		10.004	10.119	40.78		-1.23	0.000
672.42	29.774	-10.000	40.58		9.975	10.087	46.41		-1.23	0.000
672.69	29.724	-9.519	40.63		9.949	10.057	35.68		-1.23	0.000
672.96	29.677	-9.002	40.67		9.926	10.031	-17.52		-1.23	0.000
673.24	29.649	-8.486	40.70		9.902	10.007	-46.79		-1.23	0.000
673.51	29.608	-7.933	40.74		9.878	9.983	-99.06		-1.23	0.000
673.79	29.572	-7.344	40.78		9.859	9.959	-123.63		-1.23	0.000
674.07	29.536	-6.755	40.81		9.838	9.933	-169.85		-1.23	0.000
674.35	29.514	-6.118	40.84		9.824	9.913	-181.08		-1.23	0.000
674.63	29.486	-5.481	40.86		9.809	9.899	-164.95		-1.23	0.000
674.90	29.460	-4.832	40.89		9.792	9.886	-118.05		-1.23	0.000
675.19	29.441	-4.159	40.91		9.781	9.871	-100.81		-1.23	0.000
675.46	29.419	-3.498	40.93		9.772	9.857	-89.19		-1.23	0.000
675.74	29.410	-2.788	40.94		9.768	9.851	-91.60		-1.23	0.000
676.01	29.400	-2.091	40.95		9.761	9.839	-102.79		-1.23	0.000
676.29	29.390	-1.394	40.96		9.762	9.834	-121.20		-1.23	0.000
676.55	29.389	-0.697	40.96		9.759	9.830	-143.04		-1.23	0.000
676.82	29.387	-0.012	40.96		9.759	9.826	-151.87		-1.23	0.000
677.09	29.387	0.661	40.96		9.763	9.824	-153.85		-1.23	0.000
677.36	29.387	1.334	40.96		9.760	9.823	-160.38		-1.23	0.000
677.63	29.387	2.019	40.96		9.759	9.822	-175.06		-1.23	0.000
677.90	29.392	2.692	40.96		9.760	9.823	-182.74		-1.23	0.000
678.17	29.403	3.365	40.95		9.758	9.824	-158.28		-1.23	0.000
678.45	29.423	4.026	40.93		9.759	9.825	-125.73		-1.23	0.000
678.71	29.445	4.688	40.91		9.757	9.826	-41.24		-1.23	0.000
678.99	29.469	5.337	40.88		9.760	9.828	-9.84		-1.23	0.000
679.25	29.490	5.962	40.86		9.760	9.831	52.18		-1.23	0.000
679.53	29.521	6.562	40.83		9.778	9.832	70.27		-1.23	0.000
679.80	29.557	7.151	40.79		9.780	9.832	99.28		-1.23	0.000
680.07	29.580	7.740	40.77		9.781	9.830	105.51		-1.23	0.000
680.34	29.622	8.305	40.73		9.789	9.831	99.92		-1.23	0.000
680.61	29.664	8.834	40.69		9.796	9.832	80.72		-1.23	0.000
680.88	29.710	9.339	40.64		9.808	9.839	31.65		-1.23	0.000
681.15	29.741	9.832	40.61		9.821	9.847	-7.36		-1.23	0.000
681.42	29.792	10.288	40.56		9.841	9.863	-98.63		-1.23	0.000
681.70	29.844	10.721	40.51		9.830	9.876	-146.87		-1.23	0.000
681.97	29.881	11.118	40.47		9.851	9.892	-222.58		-1.23	0.000
682.25	29.937	11.502	40.41		9.872	9.911	-254.41		-1.23	0.000
682.52	29.996	11.851	40.35		9.892	9.934	-295.86		-1.23	0.000
682.79	30.056	12.175	40.29		9.917	9.959	-321.98		-1.23	0.000
683.06	30.098	12.464	40.25		9.944	9.970	-377.29		-1.23	0.000
683.34	30.159	12.716	40.19		9.968	9.993	-405.93		-1.23	0.000
683.62	30.223	12.921	40.13		9.990	10.018	-461.01		-1.23	0.000
683.89	30.267	13.113	40.08		10.014	10.040	-484.44		-1.23	0.000
684.17	30.333	13.269	40.02		10.039	10.063	-525.01		-1.23	0.000
684.45	30.400	13.377	39.95		10.066	10.085	-537.99		-1.23	0.000
684.73	30.467	13.462	39.88		10.089	10.107	-511.17		-1.23	0.000
685.00	30.512	13.498	39.84		10.113	10.130	-486.91		-1.23	0.000
685.28	30.580	13.510	39.77		10.136	10.155	-445.30		-1.23	0.000
685.56	30.647	13.474	39.70		10.161	10.179	-429.29		-1.23	0.000
685.84	30.714	13.401	39.64		10.184	10.204	-413.00		-1.23	0.000
686.13	30.780	13.293	39.57		10.215	10.229	-361.95		-1.23	0.000
686.40	30.824	13.149	39.53		10.250	10.255	-328.57		-1.23	0.000
686.68	30.890	12.969	39.46		10.292	10.295	-259.67		-1.23	0.000
686.95	30.954	12.752	39.40		10.324	10.333	-230.81		-1.23	0.000
687.23	31.017	12.512	39.33		10.364	10.354	-162.87		-1.23	0.000
687.51	31.058	12.224	39.29		10.398	10.388	-133.80		-1.23	0.000
687.78	31.119	11.911	39.23		10.429	10.424	-83.63		-1.23	0.000
688.06	31.178	11.563	39.17		10.463	10.460	-71.16		-1.23	0.000
688.33	31.235	11.178	39.12		10.491	10.497	-68.34		-1.23	0.000
688.61	31.272	10.781	39.08		10.522	10.532	-67.07		-1.23	0.000
688.89	31.323	10.337	39.03		10.553	10.564	-86.05		-1.23	0.000
689.17	31.373	9.868	38.98		10.580	10.595	-126.95		-1.23	0.000
689.44	31.422	9.375	38.93		10.608	10.628	-149.97		-1.23	0.000
689.72	31.453	8.846	38.90		10.632	10.655	-150.03		-1.23	0.000
690.00	31.495	8.305	38.86		10.653	10.680	-134.25		-1.23	0.000
690.27	31.535	7.740	38.82		10.676	10.703	-100.38		-1.23	0.000
690.55	31.572	7.151	38.78		10.700	10.723	-95.55		-1.23	0.000
690.82	31.595	6.538	38.76		10.715	10.733	-115.66		-1.23	0.000
691.10	31.624	5.913	38.73		10.731	10.753	-124.38		-1.23	0.000
691.37	31.651	5.300	38.70		10.719	10.771	-137.58		-1.23	0.000
691.65	31.677	4.639	38.67		10.733	10.787	-141.14		-1.23	0.000
691.92	31.690	3.966	38.66		10.740	10.804	-136.78		-1.23	0.000
692.20	31.709	3.281	38.64		10.747	10.819	-126.63		-1.23	0.000
692.47	31.719	2.608	38.63		10.758	10.831	-98.61		-1.23	0.000
692.75	31.730	1.911	38.62		10.763	10.837	-89.38		-1.23	0.000
693.02	31.736	1.226	38.61		10.766	10.841	-93.78		-1.23	0.000
693.29	31.738	0.517	38.61		10.768	10.845	-105.01		-1.23	0.000
693.57	31.741	-0.156	38.61		10.768	10.849	-121.80		-1.23	0.000
693.84	31.741	-0.853	38.61		10.766	10.851	-114.96		-1.23	0.000
694.12	31.741	-1.550	38.61		10.780	10.850	-74.11		-1.23	0.000
694.39	31.741	-2.236	38.61		10.779	10.850	-48.07		-1.23	0.000
694.66	31.732	-2.933	38.62		10.776	10.849	11.48		-1.23	0.000
694.93	31.718	-3.594	38.63		10.769	10.849	33.67		-1.23	0.000
695.21	31.697	-4.267	38.65		10.769	10.849	58.35		-1.23	0.000
695.48	31.676	-4.916	38.67		10.766	10.849	59.02		-1.23	0.000
695.76	31.646	-5.565	38.70		10.757	10.843	47.88		-1.23	0.000
696.03	31.628	-6.190	38.72		10.747	10.837	42.07		-1.23	0.000
696.30	31.595	-6.803	38.76		10.739	10.829	46.61		-1.23	0.000
696.58	31.560	-7.380	38.79		10.734	10.822	57.25		-1.23	0.000
696.85	31.533	-7.957	38.82		10.736	10.820	81.80		-1.23	0.000
697.14	31.492	-8.522	38.86		10.735	10.813	65.79		-1.23	0.000
697.41	31.449	-9.050	38.90		10.733	10.810	41.42		-1.23	0.000
697.69	31.400	-9.579	38.95		10.722	10.808	-20.35		-1.23	0.000
697.97	31.353	-10.060	39.00		10.702	10.802	-52.80		-1.23	0.000
698.25	31.318	-10.505	39.03		10.682	10.786	-121.55		-1.23	0.000
698.53	31.264	-10.937	39.09		10.661	10.767	-150.49		-1.23	0.000
698.81	31.209	-11.346	39.14		10.640	10.748	-181.45		-1.23	0.000
699.08	31.151	-11.719	39.20		10.618	10.727	-183.25		-1.23	0.000
699.36	31.112	-12.055	39.24		10.591	10.704	-190.21		-1.23	0.000
699.64	31.050	-12.356	39.30		10.565	10.682	-192.63		-1.23	0.000
699.92	30.987	-12.620	39.36		10.542	10.655	-197.19		-1.23	0.000
700.19	30.926	-12.861	39.42		10.513	10.631	-192.79		-1.23	0.000
700.47	30.882	-13.053	39.47		10.480	10.606	-177.02		-1.23	0.000
700.75	30.815	-13.221	39.53		10.455	10.575	-140.42		-1.23	0.000
701.03	30.749	-13.341	39.60		10.429	10.546	-111.44		-1.23	0.000
701.30	30.682	-13.438	39.67		10.404	10.536	-51.58		-1.23	0.000
701.58	30.636	-13.486	39.71		10.376	10.514	-25.10		-1.23	0.000
701.86	30.569	-13.510	39.78		10.350	10.489	-4.91		-1.23	0.000
702.13	30.501	-13.486	39.85		10.323	10.462	4.77		-1.23	0.000
702.40	30.435	-13.425	39.92		10.300	10.434	21.39		-1.23	0.000
702.67	30.391	-13.341	39.96		10.274	10.407	32.99		-1.23	0.000
702.95	30.323	-13.209	40.03		10.246	10.379	68.13		-1.23	0.000
703.23	30.258	-13.053	40.09		10.210	10.355	89.61		-1.23	0.000
703.51	30.194	-12.849	40.16		10.174	10.324	135.17		-1.23	0.000
703.79	30.151	-12.620	40.20		10.170	10.288	136.70		-1.23	0.000
704.07	30.089	-12.332	40.26		10.136	10.254	115.48		-1.23	0.000
704.34	30.028	-12.031	40.32		10.102	10.220	98.59		-1.23	0.000
704.62	29.969	-11.695	40.38		10.068	10.187	71.77		-1.23	0.000
704.89	29.931	-11.334	40.42		10.039	10.168	74.46		-1.23	0.000
705.17	29.876	-10.937	40.47		10.005	10.136	79.66		-1.23	0.000
705.45	29.821	-10.505	40.53		9.972	10.106	53.33		-1.23	0.000
705.72	29.769	-10.060	40.58		9.943	10.076	30.32		-1.23	0.000
705.99	29.736	-9.567	40.61		9.917	10.041	-22.78		-1.23	0.000
706.26	29.691	-9.075	40.66		9.892	10.012	-53.14		-1.23	0.000
706.54	29.646	-8.546	40.70		9.883	9.989	-100.40		-1.23	0.000
706.81	29.605	-8.005	40.74		9.862	9.961	-116.32		-1.23	0.000
707.09	29.580	-7.416	40.77		9.843	9.935	-130.20		-1.23	0.000
707.37	29.544	-6.827	40.81		9.826	9.916	-139.31		-1.23	0.000
707.64	29.512	-6.214	40.84		9.812	9.896	-193.15		-1.23	0.000
707.92	29.483	-5.565	40.87		9.800	9.877	-231.05		-1.23	0.000
708.20	29.465	-4.916	40.88		9.788	9.867	-295.01		-1.23	0.000
708.48	29.444	-4.255	40.91		9.777	9.858	-309.72		-1.23	0.000
708.75	29.427	-3.582	40.92		9.771	9.846	-309.23		-1.23	0.000
709.03	29.410	-2.897	40.94		9.762	9.836	-297.60		-1.23	0.000
709.30	29.401	-2.212	40.95		9.760	9.826	-262.46		-1.23	0.000
709.57	29.395	-1.514	40.96		9.737	9.818	-230.61		-1.23	0.000
709.85	29.391	-0.817	40.96		9.736	9.813	-151.74		-1.23	0.000
710.11	29.387	-0.132	40.96		9.734	9.810	-116.08		-1.23	0.000
710.38	29.387	0.565	40.96		9.733	9.810	-30.14		-1.23	0.000
710.64	29.387	1.238	40.96		9.736	9.810	8.03		-1.23	0.000
710.91	29.387	1.911	40.96		9.736	9.812	69.87		-1.23	0.000
711.17	29.389	2.584	40.96		9.738	9.811	92.75		-1.23	0.000
711.44	29.405	3.245	40.94		9.759	9.811	133.19		-1.23	0.000
711.71	29.418	3.882	40.93		9.760	9.812	144.79		-1.23	0.000
711.98	29.440	4.531	40.91		9.760	9.814	160.45		-1.23	0.000
712.26	29.465	5.180	40.88		9.762	9.814	165.38		-1.23	0.000
712.52	29.485	5.805	40.87		9.762	9.815	151.41		-1.23	0.000
712.80	29.515	6.430	40.83		9.762	9.815	129.72		-1.23	0.000
713.07	29.549	7.019	40.80		9.762	9.817	72.35		-1.23	0.000
713.34	29.586	7.596	40.76		9.763	9.818	45.38		-1.23	0.000
713.61	29.612	8.173	40.74		9.752	9.819	2.91		-1.23	0.000
713.89	29.654	8.702	40.70		9.762	9.821	-15.63		-1.23	0.000
714.16	29.700	9.219	40.65		9.773	9.830	-58.36		-1.23	0.000
714.43	29.730	9.724	40.62		9.789	9.838	-78.41		-1.23	0.000
714.70	29.781	10.180	40.57		9.808	9.848	-112.05		-1.23	0.000
714.98	29.833	10.625	40.52		9.827	9.859	-126.71		-1.23	0.000
715.26	29.887	11.046	40.46		9.849	9.880	-161.27		-1.23	0.000
715.53	29.924	11.430	40.43		9.872	9.888	-169.10		-1.23	0.000
715.80	29.982	11.791	40.37		9.894	9.907	-153.83		-1.23	0.000
716.07	30.042	12.115	40.31		9.905	9.928	-139.47		-1.23	0.000
716.35	30.083	12.404	40.27		9.927	9.949	-115.44		-1.23	0.000
716.62	30.145	12.668	40.21		9.951	9.971	-124.46		-1.23	0.000
716.90	30.209	12.897	40.14		9.972	9.996	-157.13		-1.23	0.000
717.18	30.274	13.077	40.08		9.992	10.020	-183.26		-1.23	0.000
717.45	30.318	13.245	40.03		10.016	10.042	-225.75		-1.23	0.000
717.72	30.385	13.365	39.97		10.040	10.067	-243.72		-1.23	0.000
718.01	30.453	13.450	39.90		10.063	10.091	-264.74		-1.23	0.000
718.29	30.521	13.498	39.83		10.085	10.115	-289.81		-1.23	0.000
718.57	30.587	13.510	39.76		10.113	10.139	-304.33		-1.23	0.000
718.84	30.633	13.486	39.72		10.137	10.168	-348.54		-1.23	0.000
719.12	30.700	13.413	39.65		10.160	10.193	-369.33		-1.23	0.000
719.40	30.765	13.317	39.58		10.195	10.209	-366.26		-1.23	0.000
719.67	30.832	13.185	39.52		10.231	10.236	-349.55		-1.23	0.000
719.95	30.876	13.005	39.47		10.270	10.263	-324.13		-1.23	0.000
720.23	30.941	12.800	39.41		10.309	10.296	-326.55		-1.23	0.000
720.51	31.004	12.560	39.35		10.344	10.333	-352.82		-1.23	0.000
720.80	31.065	12.284	39.28		10.381	10.368	-369.44		-1.23	0.000
721.07	31.106	11.971	39.24		10.416	10.409	-364.69		-1.23	0.000
721.35	31.164	11.623	39.19		10.448	10.447	-349.36		-1.23	0.000
721.63	31.222	11.238	39.13		10.483	10.480	-309.48		-1.23	0.000
721.90	31.277	10.841	39.07		10.514	10.514	-292.53		-1.23	0.000
722.18	31.313	10.397	39.04		10.541	10.548	-264.05		-1.23	0.000
722.46	31.363	9.940	38.99		10.570	10.580	-240.80		-1.23	0.000
722.73	31.413	9.447	38.94		10.596	10.607	-218.52		-1.23	0.000
723.01	31.456	8.918	38.89		10.617	10.635	-137.62		-1.23	0.000
723.29	31.501	8.389	38.85		10.615	10.662	-83.53		-1.23	0.000
723.56	31.528	7.813	38.82		10.636	10.676	29.27		-1.23	0.000
723.84	31.565	7.224	38.78		10.658	10.698	75.94		-1.23	0.000
724.11	31.600	6.647	38.75		10.683	10.720	144.11		-1.23	0.000
724.38	31.621	6.022	38.73		10.698	10.741	173.03		-1.23	0.000
724.66	31.649	5.409	38.70		10.715	10.760	225.48		-1.23	0.000
724.93	31.672	4.760	38.68		10.727	10.776	250.63		-1.23	0.000
725.20	31.691	4.087	38.66		10.740	10.792	287.64		-1.23	0.000
725.47	31.708	3.438	38.64		10.751	10.803	299.27		-1.23	0.000
725.74	31.718	2.752	38.63		10.750	10.815	295.28		-1.23	0.000
726.01	31.731	2.067	38.62		10.761	10.826	271.62		-1.23	0.000
726.28	31.737	1.382	38.61		10.761	10.830	186.22		-1.23	0.000
726.55	31.741	0.709	38.61		10.757	10.834	144.87		-1.23	0.000
726.82	31.742	0.024	38.61		10.758	10.836	83.29		-1.23	0.000
727.09	31.742	-0.649	38.61		10.755	10.838	62.48		-1.23	0.000
727.35	31.742	-1.334	38.61		10.751	10.839	19.06		-1.23	0.000
727.62	31.742	-2.007	38.61		10.766	10.839	-9.47		-1.23	0.000
727.89	31.742	-2.680	38.61		10.765	10.838	-73.33		-1.23	0.000
728.17	31.726	-3.353	38.62		10.765	10.837	-94.60		-1.23	0.000
728.45	31.704	-4.014	38.65		10.763	10.835	-102.67		-1.23	0.000
728.72	31.681	-4.688	38.67		10.759	10.834	-87.18		-1.23	0.000
729.00	31.667	-5.337	38.68		10.756	10.830	-40.24		-1.23	0.000
729.27	31.637	-5.974	38.71		10.743	10.828	-15.71		-1.23	0.000
729.55	31.605	-6.599	38.74		10.736	10.823	5.78		-1.23	0.000
729.82	31.569	-7.200	38.78		10.733	10.816	5.55		-1.23	0.000
730.09	31.545	-7.776	38.81		10.730	10.808	0.95		-1.23	0.000
730.37	31.504	-8.329	38.85		10.710	10.804	-7.55		-1.23	0.000
730.65	31.460	-8.870	38.89		10.706	10.798	-16.22		-1.23	0.000
730.93	31.415	-9.387	38.93		10.700	10.794	-29.96		-1.23	0.000
731.21	31.383	-9.892	38.97		10.680	10.785	-91.73		-1.23	0.000
731.49	31.333	-10.361	39.02		10.660	10.771	-136.37		-1.23	0.000
731.76	31.280	-10.805	39.07		10.637	10.754	-222.75		-1.23	0.000
732.04	31.224	-11.214	39.13		10.613	10.747	-253.07		-1.23	0.000
732.31	31.186	-11.587	39.16		10.591	10.728	-253.01		-1.23	0.000
732.59	31.128	-11.935	39.22		10.568	10.706	-274.36		-1.23	0.000
732.87	31.067	-12.248	39.28		10.545	10.685	-290.35		-1.23	0.000
733.15	31.005	-12.524	39.34		10.523	10.659	-296.99		-1.23	0.000
733.42	30.963	-12.776	39.39		10.497	10.633	-286.19		-1.23	0.000
733.70	30.899	-12.981	39.45		10.469	10.608	-245.18		-1.23	0.000
733.98	30.833	-13.161	39.52		10.465	10.581	-219.74		-1.23	0.000
734.25	30.768	-13.305	39.58		10.438	10.554	-150.99		-1.23	0.000
734.54	30.722	-13.413	39.63		10.415	10.527	-103.00		-1.23	0.000
734.82	30.655	-13.474	39.69		10.386	10.503	-27.69		-1.23	0.000
735.09	30.587	-13.510	39.76		10.357	10.478	-3.34		-1.23	0.000
735.37	30.521	-13.498	39.83		10.328	10.450	17.92		-1.23	0.000
735.64	30.474	-13.450	39.88		10.303	10.423	28.36		-1.23	0.000
735.92	30.408	-13.377	39.94		10.280	10.413	21.63		-1.23	0.000
736.20	30.341	-13.257	40.01		10.248	10.389	0.35		-1.23	0.000
736.47	30.277	-13.101	40.07		10.214	10.361	-3.99		-1.23	0.000
736.74	30.233	-12.921	40.12		10.177	10.332	13.73		-1.23	0.000
737.01	30.169	-12.692	40.18		10.167	10.295	19.40		-1.23	0.000
737.29	30.106	-12.440	40.24		10.138	10.262	-4.68		-1.23	0.000
737.57	30.044	-12.163	40.31		10.103	10.229	-26.03		-1.23	0.000
737.84	30.004	-11.839	40.35		10.072	10.195	-57.46		-1.23	0.000
738.13	29.946	-11.478	40.40		10.042	10.156	-65.22		-1.23	0.000
738.40	29.890	-11.094	40.46		10.012	10.121	-46.60		-1.23	0.000
738.68	29.836	-10.673	40.51		9.982	10.093	-23.24		-1.23	0.000
738.94	29.800	-10.216	40.55		9.952	10.067	16.23		-1.23	0.000
739.22	29.750	-9.748	40.60		9.924	10.049	27.72		-1.23	0.000
739.49	29.703	-9.267	40.65		9.898	10.020	22.08		-1.23	0.000
739.76	29.672	-8.750	40.68		9.867	9.990	13.39		-1.23	0.000
740.03	29.630	-8.209	40.72		9.848	9.962	14.42		-1.23	0.000
740.31	29.591	-7.656	40.76		9.825	9.936	24.85		-1.23	0.000
740.58	29.555	-7.067	40.79		9.806	9.917	38.42		-1.23	0.000
740.85	29.531	-6.466	40.82		9.788	9.900	25.78		-1.23	0.000
741.12	29.503	-5.853	40.85		9.777	9.881	-17.65		-1.23	0.000
741.39	29.474	-5.228	40.88		9.761	9.865	-51.74		-1.23	0.000
741.66	29.459	-4.579	40.89		9.749	9.857	-133.45		-1.23	0.000
741.94	29.437	-3.930	40.91		9.741	9.844	-160.36		-1.23	0.000
742.21	29.421	-3.257	40.93		9.758	9.833	-186.61		-1.23	0.000
742.49	29.409	-2.572	40.94		9.751	9.821	-185.72		-1.23	0.000
742.76	29.401	-1.887	40.95		9.747	9.814	-187.28		-1.23	0.000
743.02	29.392	-1.202	40.96		9.744	9.806	-208.26		-1.23	0.000
743.43	29.391	0.168	40.96		9.725	9.801	-324.70		-1.23	0.000
743.70	29.391	0.168	40.96		9.728	9.798	-360.34		-1.23	0.000
743.96	29.391	1.202	40.96		9.731	9.797	-389.16		-1.23	0.000
744.23	29.391	1.875	40.96		9.742	9.799	-423.42		-1.23	0.000
744.50	29.391	2.548	40.96		9.743	9.800	-418.06		-1.23	0.000
744.77	29.400	3.221	40.95		9.741	9.801	-389.23		-1.23	0.000
745.05	29.418	3.870	40.93		9.741	9.800	-368.52		-1.23	0.000
745.32	29.442	4.531	40.91		9.740	9.803	-334.30		-1.23	0.000
745.59	29.459	5.180	40.89		9.741	9.805	-317.16		-1.23	0.000
745.86	29.487	5.805	40.86		9.741	9.806	-242.04		-1.23	0.000
746.13	29.518	6.430	40.83		9.742	9.808	-185.41		-1.23	0.000
746.41	29.554	7.031	40.80		9.742	9.808	-52.32		-1.23	0.000
746.68	29.577	7.608	40.77		9.745	9.811	7.93		-1.23	0.000
746.95	29.617	8.185	40.73		9.749	9.811	89.91		-1.23	0.000
747.22	29.659	8.714	40.69		9.761	9.813	120.44		-1.23	0.000
747.49	29.689	9.231	40.66		9.771	9.818	158.18		-1.23	0.000
747.76	29.737	9.724	40.61		9.787	9.826	172.71		-1.23	0.000
748.04	29.786	10.192	40.56		9.806	9.836	189.17		-1.23	0.000
748.31	29.839	10.625	40.51		9.825	9.849	193.71		-1.23	0.000
748.58	29.874	11.046	40.48		9.848	9.865	173.17		-1.23	0.000
748.86	29.930	11.430	40.42		9.840	9.885	106.27		-1.23	0.000
749.13	29.989	11.779	40.36		9.861	9.895	70.20		-1.23	0.000
749.40	30.028	12.115	40.32		9.883	9.916	34.77		-1.23	0.000
749.66	30.090	12.404	40.26		9.908	9.941	46.96		-1.23	0.000
749.95	30.153	12.656	40.20		9.933	9.965	90.98		-1.23	0.000
750.21	30.196	12.873	40.15		9.954	9.991	107.91		-1.23	0.000
750.49	30.259	13.077	40.09		9.976	10.012	108.58		-1.23	0.000
750.76	30.326	13.233	40.02		10.003	10.033	95.03		-1.23	0.000
751.03	30.392	13.353	39.96		10.032	10.060	39.19		-1.23	0.000
751.30	30.439	13.438	39.91		10.058	10.084	12.79		-1.23	0.000
751.70	30.528	13.510	39.82		10.073	10.111	18.22		-1.23	0.000
751.97	30.594	13.498	39.76		10.099	10.135	57.28		-1.23	0.000
752.25	30.660	13.462	39.69		10.124	10.159	55.44		-1.23	0.000
752.52	30.705	13.389	39.64		10.147	10.187	13.27		-1.23	0.000
752.79	30.773	13.293	39.58		10.181	10.208	-18.90		-1.23	0.000
753.07	30.839	13.149	39.51		10.221	10.232	-78.50		-1.23	0.000
753.35	30.904	12.969	39.45		10.261	10.266	-95.57		-1.23	0.000
753.63	30.946	12.752	39.40		10.299	10.303	-110.83		-1.23	0.000
753.91	31.010	12.500	39.34		10.334	10.339	-93.38		-1.23	0.000
754.19	31.072	12.212	39.28		10.368	10.376	-51.19		-1.23	0.000
754.46	31.131	11.887	39.22		10.403	10.413	-26.66		-1.23	0.000
754.74	31.172	11.538	39.18		10.435	10.429	-34.13		-1.23	0.000
755.01	31.227	11.166	39.12		10.466	10.466	-54.31		-1.23	0.000
755.29	31.283	10.757	39.07		10.498	10.502	-50.16		-1.23	0.000
755.56	31.335	10.325	39.02		10.526	10.536	-50.67		-1.23	0.000
755.84	31.368	9.844	38.98		10.552	10.568	-43.25		-1.23	0.000
756.11	31.417	9.363	38.93		10.575	10.597	-36.36		-1.23	0.000
756.38	31.463	8.846	38.89		10.598	10.623	-35.68		-1.23	0.000
756.66	31.505	8.305	38.84		10.609	10.648	-81.32		-1.23	0.000
756.93	31.531	7.740	38.82		10.632	10.672	-125.56		-1.23	0.000
757.21	31.569	7.163	38.78		10.655	10.697	-223.38		-1.23	0.000
757.49	31.604	6.562	38.75		10.676	10.718	-250.58		-1.23	0.000
757.77	31.633	5.925	38.72		10.692	10.738	-269.49		-1.23	0.000
758.04	31.651	5.288	38.70		10.710	10.747	-268.44		-1.23	0.000
758.32	31.676	4.639	38.67		10.722	10.764	-254.54		-1.23	0.000
758.60	31.697	3.966	38.65		10.734	10.780	-237.26		-1.23	0.000
758.87	31.715	3.281	38.63		10.743	10.794	-212.33		-1.23	0.000
759.14	31.723	2.596	38.63		10.750	10.805	-201.64		-1.23	0.000
759.42	31.732	1.899	38.62		10.756	10.813	-167.41		-1.23	0.000
759.69	31.740	1.214	38.61		10.740	10.819	-139.23		-1.23	0.000
759.96	31.742	0.529	38.61		10.740	10.822	-63.20		-1.23	0.000
760.23	31.744	-0.156	38.61		10.739	10.822	-41.54		-1.23	0.000
760.51	31.744	-0.853	38.61		10.736	10.824	-24.10		-1.23	0.000
760.78	31.744	-1.538	38.61		10.736	10.824	-31.39		-1.23	0.000
761.06	31.744	-2.236	38.61		10.732	10.826	-43.19		-1.23	0.000
761.32	31.735	-2.909	38.62		10.733	10.824	-55.91		-1.23	0.000
761.60	31.718	-3.606	38.63		10.729	10.824	-83.06		-1.23	0.000
761.88	31.697	-4.255	38.65		10.728	10.824	-116.87		-1.23	0.000
762.16	31.682	-4.916	38.67		10.724	10.821	-134.08		-1.23	0.000
762.43	31.656	-5.565	38.69		10.743	10.817	-151.81		-1.23	0.000
762.71	31.626	-6.202	38.72		10.732	10.810	-156.50		-1.23	0.000
762.99	31.591	-6.815	38.76		10.722	10.806	-133.79		-1.23	0.000
763.27	31.569	-7.428	38.78		10.718	10.799	-110.68		-1.23	0.000
763.55	31.528	-8.005	38.82		10.714	10.793	-46.36		-1.23	0.000
763.82	31.487	-8.558	38.86		10.714	10.789	-24.46		-1.23	0.000
764.11	31.444	-9.099	38.91		10.708	10.785	10.14		-1.23	0.000
764.37	31.413	-9.603	38.94		10.693	10.782	22.82		-1.23	0.000
764.65	31.362	-10.096	38.99		10.674	10.776	59.20		-1.23	0.000
764.92	31.310	-10.541	39.04		10.651	10.770	78.69		-1.23	0.000
765.20	31.256	-10.962	39.09		10.626	10.752	125.56		-1.23	0.000
765.47	31.221	-11.358	39.13		10.603	10.728	149.27		-1.23	0.000
765.75	31.163	-11.719	39.19		10.587	10.704	182.88		-1.23	0.000
766.03	31.103	-12.055	39.25		10.565	10.684	188.11		-1.23	0.000
766.32	31.044	-12.356	39.31		10.540	10.662	171.80		-1.23	0.000
766.59	31.001	-12.620	39.35		10.513	10.638	151.15		-1.23	0.000
766.87	30.936	-12.861	39.41		10.487	10.611	135.88		-1.23	0.000
767.15	30.872	-13.065	39.48		10.462	10.583	109.29		-1.23	0.000
767.43	30.805	-13.221	39.54		10.436	10.557	100.21		-1.23	0.000
767.70	30.762	-13.353	39.59		10.413	10.530	83.35		-1.23	0.000
767.98	30.694	-13.438	39.66		10.390	10.501	58.19		-1.23	0.000
768.26	30.627	-13.486	39.72		10.362	10.478	-23.36		-1.23	0.000
768.53	30.560	-13.510	39.79		10.336	10.452	-80.58		-1.23	0.000
768.81	30.492	-13.486	39.86		10.312	10.437	-202.54		-1.23	0.000
769.10	30.449	-13.425	39.90		10.286	10.411	-241.90		-1.23	0.000
769.37	30.380	-13.329	39.97		10.264	10.387	-263.71		-1.23	0.000
769.65	30.315	-13.197	40.03		10.229	10.360	-254.64		-1.23	0.000
769.93	30.249	-13.029	40.10		10.191	10.332	-206.21		-1.23	0.000
770.20	30.205	-12.825	40.14		10.153	10.303	-175.66		-1.23	0.000
770.48	30.142	-12.584	40.21		10.119	10.269	-172.88		-1.23	0.000
770.76	30.080	-12.308	40.27		10.086	10.230	-142.75		-1.23	0.000
771.04	30.019	-12.007	40.33		10.053	10.193	-111.92		-1.23	0.000
771.31	29.980	-11.671	40.37		10.022	10.157	-19.65		-1.23	0.000
771.59	29.922	-11.298	40.43		9.993	10.124	34.11		-1.23	0.000
771.86	29.867	-10.901	40.48		9.963	10.093	135.01		-1.23	0.000
772.14	29.813	-10.469	40.54		9.936	10.066	167.28		-1.23	0.000
772.41	29.778	-10.012	40.57		9.903	10.038	199.55		-1.23	0.000
772.68	29.731	-9.531	40.62		9.912	10.020	197.19		-1.23	0.000
772.96	29.685	-9.026	40.67		9.886	9.992	163.28		-1.23	0.000
773.23	29.654	-8.498	40.70		9.861	9.967	155.03		-1.23	0.000
773.50	29.613	-7.933	40.74		9.843	9.938	120.16		-1.23	0.000
773.78	29.577	-7.368	40.77		9.821	9.917	89.14		-1.23	0.000
774.05	29.541	-6.779	40.81		9.801	9.894	-1.77		-1.23	0.000
774.32	29.519	-6.166	40.83		9.787	9.877	-51.47		-1.23	0.000
774.60	29.491	-5.529	40.86		9.772	9.859	-136.78		-1.23	0.000
774.88	29.465	-4.892	40.88		9.758	9.843	-174.16		-1.23	0.000
775.16	29.444	-4.219	40.91		9.748	9.830	-263.61		-1.23	0.000
775.43	29.433	-3.558	40.92		9.741	9.820	-317.40		-1.23	0.000
775.71	29.415	-2.849	40.93		9.725	9.816	-389.55		-1.23	0.000
775.98	29.405	-2.175	40.94		9.723	9.804	-407.80		-1.23	0.000
776.25	29.396	-1.478	40.95		9.719	9.797	-413.85		-1.23	0.000
776.52	29.394	-0.781	40.96		9.719	9.792	-400.09		-1.23	0.000
776.79	29.392	-0.084	40.96		9.719	9.788	-354.09		-1.23	0.000
777.05	29.390	0.577	40.96		9.721	9.786	-321.19		-1.23	0.000
777.33	29.390	1.262	40.96		9.722	9.785	-283.09		-1.23	0.000
777.60	29.390	1.935	40.96		9.725	9.785	-282.24		-1.23	0.000
777.87	29.396	2.620	40.95		9.720	9.786	-313.26		-1.23	0.000
778.14	29.405	3.281	40.94		9.721	9.787	-328.07		-1.23	0.000
778.41	29.426	3.954	40.92		9.720	9.788	-343.69		-1.23	0.000
778.69	29.449	4.603	40.90		9.719	9.789	-347.34		-1.23	0.000
778.97	29.473	5.252	40.88		9.722	9.790	-354.60		-1.23	0.000
779.24	29.490	5.901	40.86		9.723	9.790	-360.36		-1.23	0.000
779.51	29.523	6.526	40.83		9.722	9.792	-367.27		-1.23	0.000
779.79	29.557	7.115	40.79		9.723	9.793	-356.49		-1.23	0.000
780.06	29.582	7.704	40.77		9.723	9.795	-335.89		-1.23	0.000
780.33	29.622	8.269	40.73		9.747	9.795	-270.21		-1.23	0.000
780.61	29.664	8.810	40.69		9.758	9.796	-227.62		-1.23	0.000
780.88	29.710	9.327	40.64		9.767	9.804	-158.53		-1.23	0.000
781.16	29.744	9.820	40.61		9.781	9.807	-130.45		-1.23	0.000
781.43	29.792	10.288	40.56		9.799	9.823	-87.92		-1.23	0.000
781.70	29.845	10.721	40.51		9.819	9.834	-64.88		-1.23	0.000
781.98	29.901	11.130	40.45		9.841	9.850	-36.53		-1.23	0.000
782.25	29.939	11.502	40.41		9.863	9.870	-27.28		-1.23	0.000
782.53	29.995	11.863	40.36		9.884	9.894	-24.42		-1.23	0.000
782.80	30.056	12.175	40.29		9.874	9.916	-25.37		-1.23	0.000
783.07	30.098	12.464	40.25		9.899	9.938	-39.70		-1.23	0.000
783.34	30.162	12.716	40.19		9.924	9.962	-44.39		-1.23	0.000
783.61	30.226	12.933	40.12		9.946	9.976	-30.03		-1.23	0.000
783.88	30.268	13.113	40.08		9.970	10.001	-19.39		-1.23	0.000
784.15	30.333	13.257	40.02		9.993	10.024	15.38		-1.23	0.000
784.42	30.400	13.377	39.95		10.019	10.049	18.79		-1.23	0.000
784.69	30.467	13.450	39.88		10.045	10.072	25.73		-1.23	0.000
784.96	30.513	13.498	39.84		10.070	10.093	26.24		-1.23	0.000
785.24	30.580	13.510	39.77		10.095	10.118	43.12		-1.23	0.000
785.51	30.647	13.474	39.70		10.119	10.144	57.36		-1.23	0.000
785.78	30.692	13.413	39.66		10.144	10.172	78.96		-1.23	0.000
786.05	30.759	13.317	39.59		10.173	10.182	90.61		-1.23	0.000
786.33	30.824	13.185	39.53		10.209	10.208	100.73		-1.23	0.000
786.60	30.890	13.017	39.46		10.246	10.238	108.41		-1.23	0.000
786.87	30.933	12.812	39.42		10.283	10.273	112.62		-1.23	0.000
787.15	30.996	12.584	39.35		10.319	10.311	104.80		-1.23	0.000
787.42	31.059	12.308	39.29		10.337	10.348	82.49		-1.23	0.000
787.70	31.100	12.007	39.25		10.373	10.384	71.63		-1.23	0.000
787.97	31.158	11.671	39.19		10.407	10.420	47.82		-1.23	0.000
788.23	31.215	11.310	39.13		10.442	10.459	32.45		-1.23	0.000
788.51	31.273	10.913	39.08		10.477	10.492	4.75		-1.23	0.000
788.78	31.308	10.493	39.04		10.507	10.507	-9.08		-1.23	0.000
789.05	31.359	10.048	38.99		10.535	10.540	-35.21		-1.23	0.000
789.32	31.409	9.567	38.94		10.562	10.567	-59.40		-1.23	0.000
789.60	31.440	9.062	38.91		10.588	10.593	-98.99		-1.23	0.000
789.88	31.485	8.546	38.87		10.610	10.621	-110.35		-1.23	0.000
790.16	31.523	7.981	38.83		10.600	10.645	-83.15		-1.23	0.000
790.43	31.562	7.404	38.79		10.621	10.667	-56.34		-1.23	0.000
790.70	31.586	6.791	38.76		10.640	10.687	-13.01		-1.23	0.000
790.97	31.618	6.190	38.73		10.659	10.712	1.36		-1.23	0.000
791.24	31.646	5.565	38.70		10.677	10.735	10.09		-1.23	0.000
791.52	31.673	4.940	38.68		10.689	10.751	10.16		-1.23	0.000
791.80	31.687	4.279	38.66		10.699	10.760	15.76		-1.23	0.000
792.06	31.705	3.618	38.64		10.706	10.771	18.45		-1.23	0.000
792.33	31.721	2.933	38.63		10.715	10.784	48.28		-1.23	0.000
792.60	31.728	2.260	38.62		10.740	10.794	67.11		-1.23	0.000
792.87	31.736	1.587	38.61		10.742	10.802	102.64		-1.23	0.000
793.14	31.744	0.901	38.61		10.747	10.807	116.02		-1.23	0.000
793.40	31.745	0.216	38.61		10.745	10.810	124.03		-1.23	0.000
793.67	31.745	-0.445	38.61		10.741	10.813	112.12		-1.23	0.000
793.95	31.745	-1.130	38.61		10.739	10.813	63.79		-1.23	0.000
794.21	31.745	-1.815	38.61		10.737	10.813	44.79		-1.23	0.000
794.48	31.745	-2.500	38.61		10.723	10.812	25.14		-1.23	0.000
794.76	31.731	-3.161	38.62		10.724	10.810	24.21		-1.23	0.000
795.03	31.717	-3.822	38.63		10.722	10.806	47.12		-1.23	0.000
795.30	31.697	-4.483	38.65		10.721	10.804	57.92		-1.23	0.000
795.57	31.672	-5.144	38.68		10.716	10.802	27.75		-1.23	0.000
795.85	31.642	-5.769	38.71		10.707	10.799	0.00		-1.23	0.000
796.12	31.624	-6.394	38.73		10.701	10.797	-50.21		-1.23	0.000
796.39	31.590	-6.995	38.76		10.695	10.791	-54.16		-1.23	0.000
796.67	31.554	-7.584	38.80		10.694	10.786	-33.92		-1.23	0.000
796.94	31.513	-8.149	38.84		10.693	10.782	-31.55		-1.23	0.000
797.23	31.485	-8.702	38.87		10.691	10.775	-70.92		-1.23	0.000
797.50	31.441	-9.219	38.91		10.685	10.771	-107.48		-1.23	0.000
797.78	31.391	-9.736	38.96		10.665	10.767	-196.08		-1.23	0.000
798.06	31.342	-10.204	39.01		10.646	10.759	-294.60		-1.23	0.000
798.34	31.308	-10.661	39.04		10.621	10.745	-331.15		-1.23	0.000
798.61	31.254	-11.082	39.10		10.601	10.726	-388.00		-1.23	0.000
798.89	31.196	-11.466	39.15		10.575	10.702	-403.33		-1.23	0.000
799.17	31.138	-11.827	39.21		10.553	10.681	-417.64		-1.23	0.000
799.45	31.099	-12.151	39.25		10.530	10.658	-421.24		-1.23	0.000
799.73	31.036	-12.440	39.31		10.501	10.636	-375.77		-1.23	0.000
800.00	30.976	-12.704	39.37		10.475	10.610	-337.29		-1.23	0.000
800.28	30.910	-12.921	39.44		10.448	10.583	-246.53		-1.23	0.000
800.56	30.867	-13.113	39.48		10.456	10.571	-204.31		-1.23	0.000
800.84	30.801	-13.269	39.55		10.427	10.539	-134.18		-1.23	0.000
801.12	30.735	-13.377	39.62		10.403	10.513	-100.14		-1.23	0.000
801.40	30.667	-13.462	39.68		10.379	10.490	-51.04		-1.23	0.000
801.69	30.599	-13.498	39.75		10.353	10.465	-28.32		-1.23	0.000
801.96	30.555	-13.510	39.79		10.324	10.439	-47.20		-1.23	0.000
802.24	30.487	-13.474	39.86		10.298	10.416	-96.66		-1.23	0.000
802.52	30.421	-13.401	39.93		10.274	10.387	-119.65		-1.23	0.000
802.79	30.354	-13.293	40.00		10.247	10.357	-140.55		-1.23	0.000
803.07	30.310	-13.149	40.04		10.216	10.333	-141.35		-1.23	0.000
803.35	30.244	-12.969	40.11		10.178	10.306	-141.74		-1.23	0.000
803.62	30.181	-12.752	40.17		10.141	10.274	-141.74		-1.23	0.000
803.91	30.117	-12.500	40.23		10.106	10.236	-135.74		-1.23	0.000
804.18	30.077	-12.224	40.27		10.073	10.199	-115.82		-1.23	0.000
804.46	30.015	-11.899	40.33		10.042	10.165	-49.48		-1.23	0.000
804.73	29.959	-11.563	40.39		10.010	10.133	-3.48		-1.23	0.000
805.01	29.900	-11.166	40.45		9.981	10.120	103.60		-1.23	0.000
805.29	29.846	-10.769	40.50		9.950	10.089	143.76		-1.23	0.000
805.56	29.810	-10.325	40.54		9.920	10.056	196.53		-1.23	0.000
805.84	29.758	-9.856	40.59		9.894	10.025	221.36		-1.23	0.000
806.11	29.710	-9.363	40.64		9.867	9.994	216.49		-1.23	0.000
806.38	29.681	-8.846	40.67		9.847	9.964	188.84		-1.23	0.000
806.66	29.640	-8.305	40.71		9.828	9.940	176.62		-1.23	0.000
806.93	29.599	-7.752	40.75		9.808	9.916	153.59		-1.23	0.000
807.20	29.563	-7.163	40.79		9.797	9.895	144.90		-1.23	0.000
807.48	29.540	-6.562	40.81		9.777	9.877	119.13		-1.23	0.000
807.75	29.508	-5.950	40.84		9.763	9.858	90.61		-1.23	0.000
808.03	29.480	-5.313	40.87		9.748	9.851	27.00		-1.23	0.000
808.30	29.464	-4.663	40.89		9.734	9.839	-6.15		-1.23	0.000
808.58	29.442	-4.002	40.91		9.722	9.822	-77.72		-1.23	0.000
808.85	29.426	-3.329	40.92		9.715	9.810	-114.54		-1.23	0.000
809.13	29.410	-2.632	40.94		9.707	9.797	-168.18		-1.23	0.000
809.40	29.401	-1.947	40.95		9.702	9.788	-177.20		-1.23	0.000
809.68	29.398	-1.250	40.95		9.702	9.783	-188.87		-1.23	0.000
809.95	29.394	-0.565	40.96		9.718	9.779	-196.01		-1.23	0.000
810.22	29.394	0.132	40.96		9.720	9.777	-213.93		-1.23	0.000
810.49	29.394	0.817	40.96		9.720	9.777	-219.98		-1.23	0.000
810.76	29.394	1.502	40.96		9.720	9.774	-214.66		-1.23	0.000
811.02	29.394	2.175	40.96		9.723	9.774	-223.30		-1.23	0.000
811.29	29.395	2.849	40.96		9.724	9.776	-240.94		-1.23	0.000
811.56	29.413	3.522	40.94		9.724	9.777	-257.47		-1.23	0.000
811.84	29.437	4.171	40.91		9.724	9.779	-292.50		-1.23	0.000
812.11	29.451	4.820	40.90		9.706	9.781	-292.38		-1.23	0.000
812.38	29.476	5.469	40.87		9.710	9.783	-295.88		-1.23	0.000
812.66	29.507	6.106	40.84		9.708	9.784	-298.02		-1.23	0.000
812.93	29.540	6.707	40.81		9.711	9.785	-315.36		-1.23	0.000
813.20	29.563	7.308	40.79		9.711	9.786	-325.41		-1.23	0.000
813.48	29.601	7.873	40.75		9.714	9.789	-328.24		-1.23	0.000
813.75	29.641	8.425	40.71		9.722	9.790	-316.34		-1.23	0.000
814.02	29.671	8.966	40.68		9.735	9.793	-283.45		-1.23	0.000
814.30	29.717	9.471	40.63		9.748	9.797	-274.65		-1.23	0.000
814.58	29.765	9.964	40.58		9.765	9.803	-265.70		-1.23	0.000
814.85	29.817	10.421	40.53		9.786	9.817	-262.85		-1.23	0.000
815.13	29.851	10.853	40.50		9.806	9.836	-273.80		-1.23	0.000
815.40	29.908	11.262	40.44		9.825	9.852	-271.31		-1.23	0.000
815.68	29.965	11.635	40.38		9.845	9.875	-245.63		-1.23	0.000
815.95	30.024	11.971	40.33		9.869	9.898	-216.80		-1.23	0.000
816.23	30.063	12.284	40.29		9.891	9.918	-160.09		-1.23	0.000
816.51	30.127	12.548	40.22		9.915	9.934	-114.84		-1.23	0.000
816.78	30.189	12.800	40.16		9.936	9.958	-90.69		-1.23	0.000
817.05	30.254	13.005	40.10		9.959	9.980	-39.01		-1.23	0.000
817.32	30.298	13.173	40.05		9.982	10.000	-3.82		-1.23	0.000
817.59	30.363	13.305	39.99		9.997	10.021	84.61		-1.23	0.000
817.87	30.431	13.413	39.92		10.021	10.047	134.03		-1.23	0.000
818.14	30.476	13.474	39.87		10.048	10.073	208.44		-1.23	0.000
818.41	30.544	13.510	39.81		10.076	10.100	227.78		-1.23	0.000
818.69	30.610	13.498	39.74		10.100	10.123	231.64		-1.23	0.000
818.96	30.678	13.462	39.67		10.130	10.148	219.50		-1.23	0.000
819.23	30.723	13.377	39.63		10.148	10.156	196.77		-1.23	0.000
819.51	30.789	13.269	39.56		10.191	10.183	179.94		-1.23	0.000
819.78	30.855	13.113	39.49		10.227	10.212	155.71		-1.23	0.000
820.05	30.899	12.933	39.45		10.227	10.244	155.33		-1.23	0.000
820.33	30.964	12.716	39.39		10.267	10.279	156.16		-1.23	0.000
820.60	31.026	12.464	39.32		10.300	10.312	156.69		-1.23	0.000
820.88	31.087	12.175	39.26		10.337	10.350	153.35		-1.23	0.000
821.15	31.128	11.863	39.22		10.371	10.386	154.75		-1.23	0.000
821.42	31.185	11.514	39.17		10.406	10.422	165.87		-1.23	0.000
821.70	31.242	11.142	39.11		10.433	10.459	174.49		-1.23	0.000
821.97	31.296	10.733	39.05		10.467	10.496	184.00		-1.23	0.000
822.24	31.332	10.288	39.02		10.496	10.512	178.92		-1.23	0.000
822.52	31.382	9.820	38.97		10.520	10.547	148.96		-1.23	0.000
822.79	31.430	9.339	38.92		10.555	10.573	124.78		-1.23	0.000
823.07	31.462	8.810	38.89		10.579	10.596	80.78		-1.23	0.000
823.34	31.504	8.281	38.85		10.600	10.622	69.71		-1.23	0.000
823.62	31.544	7.704	38.81		10.619	10.648	49.62		-1.23	0.000
823.89	31.578	7.127	38.77		10.640	10.673	35.71		-1.23	0.000
824.16	31.603	6.514	38.75		10.659	10.693	-1.40		-1.23	0.000
824.43	31.633	5.913	38.72		10.673	10.711	-32.02		-1.23	0.000
824.72	31.658	5.276	38.69		10.686	10.729	-104.72		-1.23	0.000
824.99	31.685	4.627	38.67		10.698	10.745	-138.78		-1.23	0.000
825.27	31.694	3.942	38.66		10.707	10.754	-195.97		-1.23	0.000
825.54	31.714	3.281	38.64		10.703	10.765	-203.67		-1.23	0.000
825.81	31.730	2.584	38.62		10.712	10.776	-188.57		-1.23	0.000
826.08	31.733	1.899	38.62		10.716	10.784	-167.71		-1.23	0.000
826.35	31.741	1.226	38.61		10.720	10.793	-134.70		-1.23	0.000
826.62	31.745	0.541	38.61		10.720	10.797	-120.25		-1.23	0.000
826.90	31.746	-0.156	38.60		10.720	10.802	-109.30		-1.23	0.000
827.17	31.746	-0.829	38.60		10.719	10.802	-96.25		-1.23	0.000
827.44	31.746	-1.526	38.60		10.720	10.799	-79.30		-1.23	0.000
827.71	31.746	-2.224	38.60		10.716	10.798	-27.37		-1.23	0.000
827.99	31.740	-2.897	38.61		10.712	10.797	11.98		-1.23	0.000
828.26	31.723	-3.570	38.63		10.710	10.795	92.36		-1.23	0.000
828.54	31.704	-4.243	38.65		10.708	10.793	106.82		-1.23	0.000
828.81	31.680	-4.904	38.67		10.703	10.792	61.84		-1.23	0.000
829.08	31.662	-5.553	38.69		10.695	10.791	21.24		-1.23	0.000
829.36	31.631	-6.178	38.72		10.688	10.788	-59.30		-1.23	0.000
829.64	31.599	-6.791	38.75		10.676	10.780	-85.63		-1.23	0.000
829.92	31.564	-7.380	38.79		10.671	10.770	-111.16		-1.23	0.000
830.20	31.538	-7.969	38.81		10.672	10.763	-110.17		-1.23	0.000
830.47	31.495	-8.534	38.86		10.668	10.761	-107.41		-1.23	0.000
830.75	31.451	-9.062	38.90		10.688	10.760	-111.17		-1.23	0.000
831.02	31.404	-9.567	38.95		10.675	10.758	-159.91		-1.23	0.000
831.30	31.372	-10.048	38.98		10.655	10.753	-187.58		-1.23	0.000
831.58	31.322	-10.505	39.03		10.636	10.743	-180.46		-1.23	0.000
831.85	31.267	-10.937	39.08		10.612	10.723	-147.18		-1.23	0.000
832.13	31.212	-11.346	39.14		10.590	10.702	-60.27		-1.23	0.000
832.40	31.173	-11.707	39.18		10.569	10.676	-23.82		-1.23	0.000
832.68	31.114	-12.043	39.24		10.543	10.653	33.95		-1.23	0.000
832.95	31.053	-12.344	39.30		10.519	10.633	56.66		-1.23	0.000
833.23	30.990	-12.608	39.36		10.494	10.611	95.57		-1.23	0.000
833.51	30.949	-12.837	39.40		10.468	10.584	138.16		-1.23	0.000
833.78	30.882	-13.041	39.47		10.431	10.556	149.45		-1.23	0.000
834.06	30.817	-13.209	39.53		10.407	10.529	132.87		-1.23	0.000
834.34	30.751	-13.341	39.60		10.381	10.502	113.41		-1.23	0.000
834.62	30.705	-13.425	39.64		10.359	10.477	37.96		-1.23	0.000
834.90	30.639	-13.486	39.71		10.334	10.455	2.36		-1.23	0.000
835.18	30.572	-13.510	39.78		10.307	10.442	-72.97		-1.23	0.000
835.46	30.504	-13.486	39.85		10.281	10.415	-104.21		-1.23	0.000
835.73	30.460	-13.438	39.89		10.259	10.391	-165.70		-1.23	0.000
836.01	30.392	-13.341	39.96		10.232	10.363	-198.42		-1.23	0.000
836.29	30.327	-13.209	40.02		10.205	10.335	-253.22		-1.23	0.000
836.57	30.260	-13.053	40.09		10.168	10.309	-289.07		-1.23	0.000
836.85	30.196	-12.849	40.15		10.131	10.281	-294.69		-1.23	0.000
837.12	30.154	-12.608	40.20		10.097	10.245	-266.71		-1.23	0.000
837.40	30.091	-12.344	40.26		10.065	10.207	-237.01		-1.23	0.000
837.68	30.028	-12.031	40.32		10.050	10.174	-177.59		-1.23	0.000
837.95	29.969	-11.695	40.38		10.016	10.143	-153.70		-1.23	0.000
838.24	29.932	-11.322	40.42		9.984	10.110	-136.04		-1.23	0.000
838.52	29.877	-10.937	40.47		9.952	10.077	-146.16		-1.23	0.000
838.80	29.823	-10.493	40.53		9.919	10.047	-174.28		-1.23	0.000
839.07	29.772	-10.024	40.58		9.892	10.017	-188.47		-1.23	0.000
839.35	29.739	-9.543	40.61		9.861	9.985	-217.54		-1.23	0.000
839.62	29.694	-9.026	40.66		9.838	9.971	-224.19		-1.23	0.000
839.90	29.649	-8.486	40.70		9.815	9.943	-230.61		-1.23	0.000
840.18	29.608	-7.933	40.74		9.795	9.920	-239.67		-1.23	0.000
840.46	29.582	-7.356	40.77		9.774	9.895	-260.57		-1.23	0.000
840.73	29.548	-6.755	40.80		9.757	9.875	-270.70		-1.23	0.000
841.01	29.517	-6.130	40.83		9.744	9.858	-274.01		-1.23	0.000
841.30	29.489	-5.493	40.86		9.731	9.842	-233.16		-1.23	0.000
841.58	29.463	-4.832	40.89		9.744	9.823	-202.72		-1.23	0.000
841.85	29.448	-4.147	40.90		9.735	9.808	-150.55		-1.23	0.000
842.12	29.428	-3.474	40.92		9.726	9.796	-139.05		-1.23	0.000
842.40	29.417	-2.800	40.93		9.719	9.783	-110.85		-1.23	0.000
842.67	29.407	-2.115	40.94		9.714	9.775	-101.63		-1.23	0.000
842.95	29.399	-1.418	40.95		9.710	9.771	-52.49		-1.23	0.000
843.21	29.395	-0.721	40.96		9.713	9.769	-29.05		-1.23	0.000
843.48	29.392	-0.024	40.96		9.710	9.765	-15.23		-1.23	0.000
843.75	29.392	0.637	40.96		9.711	9.764	-25.41		-1.23	0.000
844.01	29.392	1.322	40.96		9.691	9.765	-75.02		-1.23	0.000
844.28	29.392	1.995	40.96		9.692	9.766	-105.08		-1.23	0.000
844.55	29.394	2.668	40.96		9.695	9.766	-138.97		-1.23	0.000
844.83	29.410	3.329	40.94		9.696	9.765	-140.03		-1.23	0.000
845.10	29.428	3.990	40.92		9.696	9.767	-102.23		-1.23	0.000
845.38	29.445	4.663	40.91		9.699	9.768	-82.59		-1.23	0.000
845.65	29.471	5.313	40.88		9.703	9.768	-93.34		-1.23	0.000
845.92	29.500	5.938	40.85		9.703	9.768	-121.08		-1.23	0.000
846.19	29.532	6.550	40.82		9.712	9.771	-184.63		-1.23	0.000
846.46	29.554	7.151	40.80		9.712	9.771	-204.42		-1.23	0.000
846.74	29.592	7.728	40.76		9.714	9.769	-208.60		-1.23	0.000
847.01	29.632	8.293	40.72		9.719	9.770	-203.01		-1.23	0.000
847.29	29.660	8.822	40.69		9.729	9.773	-179.34		-1.23	0.000
847.56	29.705	9.351	40.64		9.739	9.782	-171.62		-1.23	0.000
847.83	29.753	9.844	40.60		9.751	9.792	-201.21		-1.23	0.000
848.10	29.804	10.300	40.55		9.768	9.797	-229.55		-1.23	0.000
848.38	29.839	10.733	40.51		9.788	9.812	-295.75		-1.23	0.000
848.65	29.894	11.142	40.46		9.808	9.832	-321.73		-1.23	0.000
848.93	29.950	11.514	40.40		9.831	9.852	-351.81		-1.23	0.000
849.20	29.989	11.875	40.36		9.853	9.873	-356.26		-1.23	0.000
849.47	30.050	12.188	40.30		9.881	9.894	-335.46		-1.23	0.000
849.75	30.110	12.464	40.24		9.903	9.917	-320.36		-1.23	0.000
850.02	30.174	12.728	40.18		9.927	9.941	-286.30		-1.23	0.000
850.30	30.217	12.933	40.13		9.950	9.964	-272.53		-1.23	0.000
850.57	30.281	13.125	40.07		9.973	9.989	-248.85		-1.23	0.000
850.84	30.349	13.269	40.00		9.998	10.010	-236.78		-1.23	0.000
851.12	30.414	13.377	39.94		10.022	10.021	-225.69		-1.23	0.000
851.40	30.459	13.462	39.89		10.014	10.045	-224.46		-1.23	0.000
851.68	30.527	13.498	39.82		10.038	10.071	-221.20		-1.23	0.000
851.95	30.594	13.510	39.76		10.061	10.094	-221.06		-1.23	0.000
852.24	30.662	13.474	39.69		10.089	10.118	-235.47		-1.23	0.000
852.51	30.706	13.401	39.64		10.113	10.145	-273.31		-1.23	0.000
852.79	30.774	13.293	39.58		10.149	10.172	-287.11		-1.23	0.000
853.06	30.839	13.149	39.51		10.183	10.197	-311.09		-1.23	0.000
853.34	30.904	12.969	39.45		10.223	10.233	-330.18		-1.23	0.000
853.61	30.947	12.764	39.40		10.261	10.272	-375.78		-1.23	0.000
853.89	31.010	12.512	39.34		10.296	10.309	-390.58		-1.23	0.000
854.17	31.072	12.236	39.28		10.329	10.344	-398.11		-1.23	0.000
854.44	31.133	11.923	39.22		10.365	10.382	-393.62		-1.23	0.000
854.72	31.172	11.563	39.18		10.402	10.416	-377.99		-1.23	0.000
855.00	31.228	11.190	39.12		10.433	10.432	-377.21		-1.23	0.000
855.28	31.283	10.781	39.07		10.465	10.468	-384.65		-1.23	0.000
855.55	31.336	10.337	39.01		10.494	10.502	-396.63		-1.23	0.000
855.83	31.369	9.868	38.98		10.520	10.533	-426.04		-1.23	0.000
856.11	31.418	9.375	38.93		10.545	10.562	-432.82		-1.23	0.000
856.39	31.463	8.858	38.89		10.567	10.589	-398.85		-1.23	0.000
856.66	31.508	8.317	38.84		10.588	10.612	-341.07		-1.23	0.000
856.94	31.545	7.728	38.81		10.609	10.634	-313.08		-1.23	0.000
857.22	31.569	7.151	38.78		10.630	10.657	-270.08		-1.23	0.000
857.51	31.605	6.538	38.74		10.647	10.679	-245.30		-1.23	0.000
857.78	31.635	5.901	38.72		10.662	10.701	-195.66		-1.23	0.000
858.06	31.662	5.240	38.69		10.674	10.721	-167.62		-1.23	0.000
858.34	31.680	4.603	38.67		10.687	10.740	-137.68		-1.23	0.000
858.61	31.697	3.918	38.65		10.693	10.755	-131.10		-1.23	0.000
858.89	31.715	3.233	38.63		10.702	10.767	-125.79		-1.23	0.000
859.17	31.731	2.572	38.62		10.711	10.774	-126.74		-1.23	0.000
859.44	31.733	1.851	38.62		10.717	10.778	-119.50		-1.23	0.000
859.71	31.741	1.166	38.61		10.719	10.784	-110.72		-1.23	0.000
859.99	31.744	0.457	38.61		10.719	10.787	-76.65		-1.23	0.000
860.26	31.746	-0.216	38.60		10.722	10.790	-62.84		-1.23	0.000
860.53	31.746	-0.913	38.60		10.721	10.790	-45.65		-1.23	0.000
860.80	31.746	-1.611	38.60		10.720	10.789	-31.70		-1.23	0.000
861.08	31.746	-2.296	38.60		10.718	10.787	-31.17		-1.23	0.000
861.34	31.740	-2.969	38.61		10.697	10.786	-29.36		-1.23	0.000
861.62	31.721	-3.654	38.63		10.695	10.786	-19.06		-1.23	0.000
861.90	31.700	-4.303	38.65		10.694	10.786	-19.16		-1.23	0.000
862.18	31.677	-4.964	38.67		10.688	10.788	-50.36		-1.23	0.000
862.45	31.659	-5.613	38.69		10.682	10.787	-120.98		-1.23	0.000
862.73	31.627	-6.250	38.72		10.674	10.783	-160.14		-1.23	0.000
863.01	31.596	-6.851	38.75		10.665	10.776	-225.84		-1.23	0.000
863.29	31.556	-7.464	38.79		10.664	10.766	-247.24		-1.23	0.000
863.56	31.533	-8.041	38.82		10.661	10.757	-294.44		-1.23	0.000
863.84	31.490	-8.594	38.86		10.660	10.754	-310.24		-1.23	0.000
864.12	31.446	-9.135	38.90		10.654	10.750	-314.94		-1.23	0.000
864.39	31.399	-9.639	38.95		10.663	10.744	-310.69		-1.23	0.000
864.67	31.350	-10.120	39.00		10.644	10.739	-269.83		-1.23	0.000
864.95	31.315	-10.577	39.03		10.618	10.728	-245.36		-1.23	0.000
865.23	31.262	-10.998	39.09		10.597	10.705	-176.03		-1.23	0.000
865.50	31.205	-11.382	39.14		10.572	10.682	-137.34		-1.23	0.000
865.78	31.147	-11.767	39.20		10.552	10.660	-72.27		-1.23	0.000
866.05	31.106	-12.079	39.24		10.527	10.648	-43.84		-1.23	0.000
866.34	31.046	-12.392	39.30		10.501	10.626	15.79		-1.23	0.000
866.61	30.985	-12.644	39.37		10.475	10.601	97.15		-1.23	0.000
866.89	30.921	-12.885	39.43		10.447	10.576	144.19		-1.23	0.000
867.17	30.877	-13.077	39.47		10.420	10.550	218.58		-1.23	0.000
867.45	30.810	-13.233	39.54		10.393	10.525	227.42		-1.23	0.000
867.73	30.744	-13.353	39.61		10.369	10.502	204.68		-1.23	0.000
868.00	30.677	-13.450	39.67		10.357	10.474	185.17		-1.23	0.000
868.28	30.633	-13.498	39.72		10.330	10.450	138.69		-1.23	0.000
868.55	30.565	-13.510	39.78		10.307	10.423	114.19		-1.23	0.000
868.84	30.499	-13.486	39.85		10.279	10.397	66.49		-1.23	0.000
869.11	30.431	-13.425	39.92		10.258	10.370	50.42		-1.23	0.000
869.38	30.385	-13.317	39.97		10.234	10.343	26.09		-1.23	0.000
869.66	30.321	-13.185	40.03		10.204	10.316	-0.40		-1.23	0.000
869.94	30.255	-13.017	40.09		10.165	10.289	-79.31		-1.23	0.000
870.22	30.191	-12.825	40.16		10.131	10.270	-130.99		-1.23	0.000
870.50	30.148	-12.572	40.20		10.094	10.234	-200.34		-1.23	0.000
870.78	30.085	-12.296	40.27		10.063	10.204	-244.87		-1.23	0.000
871.05	30.026	-11.983	40.32		10.032	10.170	-252.50		-1.23	0.000
871.34	29.964	-11.647	40.39		9.995	10.135	-222.55		-1.23	0.000
871.62	29.908	-11.274	40.44		9.965	10.100	-198.37		-1.23	0.000
871.89	29.872	-10.853	40.48		9.933	10.068	-188.39		-1.23	0.000
872.17	29.818	-10.421	40.53		9.904	10.036	-208.55		-1.23	0.000
872.45	29.767	-9.952	40.58		9.876	10.008	-246.30		-1.23	0.000
872.72	29.718	-9.471	40.63		9.848	9.980	-247.25		-1.23	0.000
873.00	29.689	-8.954	40.66		9.825	9.952	-213.32		-1.23	0.000
873.28	29.644	-8.425	40.71		9.801	9.924	-185.06		-1.23	0.000
873.56	29.605	-7.849	40.74		9.782	9.900	-136.19		-1.23	0.000
873.83	29.567	-7.248	40.78		9.764	9.877	-122.09		-1.23	0.000
874.12	29.545	-6.659	40.81		9.747	9.860	-145.55		-1.23	0.000
874.39	29.514	-6.034	40.84		9.735	9.849	-197.76		-1.23	0.000
874.67	29.486	-5.373	40.86		9.721	9.833	-217.94		-1.23	0.000
874.94	29.460	-4.736	40.89		9.707	9.815	-212.30		-1.23	0.000
875.22	29.445	-4.063	40.91		9.723	9.797	-191.94		-1.23	0.000
875.50	29.431	-3.389	40.92		9.713	9.786	-164.14		-1.23	0.000
875.77	29.414	-2.692	40.94		9.706	9.778	-146.90		-1.23	0.000
876.05	29.404	-2.007	40.95		9.702	9.772	-134.16		-1.23	0.000
876.32	29.396	-1.310	40.95		9.697	9.767	-124.78		-1.23	0.000
876.59	29.395	-0.613	40.96		9.695	9.761	-99.19		-1.23	0.000
876.86	29.394	0.072	40.96		9.692	9.757	-80.06		-1.23	0.000
877.13	29.394	0.757	40.96		9.693	9.755	-30.25		-1.23	0.000
877.39	29.394	1.430	40.96		9.691	9.756	-11.91		-1.23	0.000
877.66	29.394	2.115	40.96		9.693	9.757	33.95		-1.23	0.000
877.92	29.395	2.776	40.96		9.695	9.756	44.81		-1.23	0.000
878.19	29.415	3.438	40.93		9.697	9.755	69.70		-1.23	0.000
878.46	29.433	4.075	40.92		9.697	9.755	76.93		-1.23	0.000
878.73	29.449	4.736	40.90		9.699	9.755	71.39		-1.23	0.000
879.01	29.473	5.373	40.88		9.703	9.758	58.78		-1.23	0.000
879.28	29.504	5.998	40.85		9.705	9.759	10.91		-1.23	0.000
879.55	29.537	6.623	40.81		9.695	9.760	-16.85		-1.23	0.000
879.82	29.560	7.200	40.79		9.693	9.762	-75.23		-1.23	0.000
880.09	29.596	7.776	40.75		9.694	9.765	-105.69		-1.23	0.000
880.37	29.639	8.341	40.71		9.701	9.769	-185.71		-1.23	0.000
880.64	29.665	8.870	40.68		9.711	9.771	-228.74		-1.23	0.000
880.92	29.712	9.387	40.64		9.723	9.776	-307.11		-1.23	0.000
881.18	29.760	9.868	40.59		9.741	9.789	-329.80		-1.23	0.000
881.46	29.812	10.337	40.54		9.758	9.800	-329.61		-1.23	0.000
881.74	29.845	10.769	40.51		9.778	9.817	-313.37		-1.23	0.000
882.01	29.901	11.178	40.45		9.808	9.834	-266.82		-1.23	0.000
882.29	29.956	11.563	40.39		9.832	9.845	-246.20		-1.23	0.000
882.56	29.998	11.899	40.35		9.852	9.866	-195.84		-1.23	0.000
882.83	30.058	12.212	40.29		9.876	9.888	-158.86		-1.23	0.000
883.10	30.121	12.500	40.23		9.902	9.912	-67.18		-1.23	0.000
883.38	30.182	12.740	40.17		9.923	9.937	-25.57		-1.23	0.000
883.64	30.224	12.957	40.13		9.945	9.959	43.23		-1.23	0.000
883.92	30.290	13.137	40.06		9.969	9.982	54.78		-1.23	0.000
884.18	30.356	13.281	39.99		9.960	10.006	18.43		-1.23	0.000
884.45	30.401	13.389	39.95		9.985	10.024	-24.29		-1.23	0.000
884.73	30.469	13.462	39.88		10.010	10.040	-115.84		-1.23	0.000
885.01	30.535	13.498	39.82		10.034	10.063	-131.36		-1.23	0.000
885.28	30.601	13.510	39.75		10.064	10.088	-129.19		-1.23	0.000
885.55	30.649	13.474	39.70		10.090	10.115	-124.61		-1.23	0.000
885.83	30.714	13.401	39.64		10.114	10.141	-125.12		-1.23	0.000
886.12	30.781	13.305	39.57		10.146	10.168	-124.55		-1.23	0.000
886.40	30.849	13.161	39.50		10.185	10.192	-91.47		-1.23	0.000
886.68	30.891	12.981	39.46		10.226	10.221	-76.77		-1.23	0.000
886.96	30.955	12.752	39.39		10.263	10.259	-50.46		-1.23	0.000
887.22	31.018	12.512	39.33		10.302	10.297	-3.95		-1.23	0.000
887.50	31.080	12.224	39.27		10.321	10.340	15.90		-1.23	0.000
887.77	31.121	11.911	39.23		10.355	10.376	6.30		-1.23	0.000
888.04	31.180	11.575	39.17		10.388	10.407	-18.71		-1.23	0.000
888.31	31.236	11.202	39.11		10.420	10.422	-97.55		-1.23	0.000
888.59	31.291	10.793	39.06		10.448	10.458	-142.66		-1.23	0.000
888.87	31.327	10.373	39.02		10.478	10.490	-227.17		-1.23	0.000
889.15	31.377	9.904	38.97		10.505	10.525	-254.28		-1.23	0.000
889.42	31.426	9.411	38.92		10.529	10.555	-265.07		-1.23	0.000
889.70	31.472	8.894	38.88		10.550	10.586	-247.93		-1.23	0.000
889.98	31.500	8.353	38.85		10.571	10.610	-189.25		-1.23	0.000
890.26	31.540	7.776	38.81		10.598	10.630	-158.85		-1.23	0.000
890.54	31.577	7.188	38.77		10.619	10.651	-80.07		-1.23	0.000
890.81	31.610	6.575	38.74		10.638	10.674	-45.16		-1.23	0.000
891.09	31.631	5.950	38.72		10.656	10.696	27.25		-1.23	0.000
891.36	31.660	5.313	38.69		10.670	10.716	73.53		-1.23	0.000
891.63	31.685	4.663	38.67		10.682	10.734	149.87		-1.23	0.000
891.91	31.700	4.002	38.65		10.694	10.739	165.52		-1.23	0.000
892.18	31.714	3.329	38.64		10.702	10.752	144.00		-1.23	0.000
892.45	31.730	2.656	38.62		10.709	10.765	119.49		-1.23	0.000
892.72	31.742	1.971	38.61		10.713	10.771	58.17		-1.23	0.000
892.98	31.744	1.286	38.61		10.692	10.778	26.15		-1.23	0.000
893.25	31.751	0.601	38.60		10.699	10.780	-53.42		-1.23	0.000
893.53	31.751	-0.060	38.60		10.697	10.783	-84.80		-1.23	0.000
893.80	31.751	-0.745	38.60		10.693	10.784	-109.69		-1.23	0.000
894.07	31.751	-1.442	38.60		10.695	10.784	-109.28		-1.23	0.000
894.35	31.751	-2.139	38.60		10.689	10.785	-115.02		-1.23	0.000
894.62	31.742	-2.812	38.61		10.691	10.783	-126.76		-1.23	0.000
894.90	31.728	-3.510	38.62		10.689	10.781	-139.50		-1.23	0.000
895.17	31.709	-4.171	38.64		10.686	10.779	-137.54		-1.23	0.000
895.46	31.686	-4.832	38.66		10.685	10.777	-126.81		-1.23	0.000
895.74	31.659	-5.481	38.69		10.696	10.776	-114.07		-1.23	0.000
896.03	31.641	-6.130	38.71		10.686	10.772	-112.43		-1.23	0.000
896.30	31.608	-6.755	38.74		10.676	10.765	-132.05		-1.23	0.000
896.58	31.571	-7.380	38.78		10.674	10.757	-160.92		-1.23	0.000
896.86	31.532	-7.957	38.82		10.673	10.749	-254.23		-1.23	0.000
897.14	31.491	-8.522	38.86		10.669	10.744	-308.11		-1.23	0.000
897.42	31.463	-9.062	38.89		10.664	10.744	-345.45		-1.24	0.000
897.69	31.415	-9.567	38.93		10.647	10.742	-332.91		-1.24	0.000
897.98	31.365	-10.060	38.98		10.628	10.731	-274.54		-1.24	0.000
898.26	31.314	-10.517	39.04		10.606	10.716	-248.59		-1.24	0.000
898.53	31.280	-10.950	39.07		10.580	10.696	-207.09		-1.24	0.000
898.82	31.224	-11.358	39.13		10.557	10.674	-174.74		-1.24	0.000
899.09	31.167	-11.731	39.18		10.533	10.665	-145.08		-1.24	0.000
899.37	31.106	-12.067	39.24		10.507	10.643	-59.89		-1.24	0.000
899.65	31.045	-12.368	39.31		10.481	10.620	-12.84		-1.24	0.000
899.92	31.003	-12.632	39.35		10.481	10.596	82.77		-1.24	0.000
900.20	30.941	-12.873	39.41		10.456	10.571	113.67		-1.24	0.000
900.48	30.876	-13.053	39.47		10.429	10.545	126.21		-1.24	0.000
900.76	30.809	-13.221	39.54		10.406	10.519	115.40		-1.24	0.000
901.04	30.764	-13.353	39.59		10.380	10.494	80.19		-1.24	0.000
901.31	30.697	-13.438	39.65		10.357	10.468	62.65		-1.24	0.000
901.59	30.631	-13.486	39.72		10.331	10.442	34.75		-1.24	0.000
901.86	30.564	-13.510	39.79		10.305	10.416	26.47		-1.24	0.000
902.13	30.519	-13.486	39.83		10.278	10.391	2.09		-1.24	0.000
902.40	30.450	-13.425	39.90		10.251	10.365	0.15		-1.24	0.000
902.68	30.383	-13.341	39.97		10.225	10.353	9.52		-1.24	0.000
902.95	30.340	-13.209	40.01		10.193	10.326	20.23		-1.24	0.000
903.23	30.273	-13.053	40.08		10.156	10.299	42.02		-1.24	0.000
903.50	30.209	-12.849	40.14		10.120	10.269	48.64		-1.24	0.000
903.78	30.146	-12.620	40.20		10.083	10.235	56.85		-1.24	0.000
904.05	30.105	-12.356	40.24		10.049	10.200	46.36		-1.24	0.000
904.32	30.044	-12.055	40.31		10.018	10.159	44.25		-1.24	0.000
904.60	29.983	-11.719	40.37		9.985	10.126	49.35		-1.24	0.000
904.87	29.945	-11.358	40.41		9.955	10.094	62.18		-1.24	0.000
905.14	29.890	-10.962	40.46		9.923	10.063	88.30		-1.24	0.000
905.41	29.836	-10.553	40.51		9.928	10.045	89.84		-1.24	0.000
905.68	29.782	-10.108	40.57		9.900	10.013	54.52		-1.24	0.000
905.95	29.750	-9.627	40.60		9.872	9.984	32.34		-1.24	0.000
906.22	29.703	-9.135	40.65		9.845	9.956	1.32		-1.24	0.000
906.49	29.660	-8.618	40.69		9.822	9.931	-11.33		-1.24	0.000
906.77	29.632	-8.077	40.72		9.799	9.906	-19.29		-1.24	0.000
907.04	29.592	-7.512	40.76		9.778	9.883	-20.99		-1.24	0.000
907.32	29.557	-6.911	40.79		9.759	9.860	-5.29		-1.24	0.000
907.59	29.526	-6.310	40.82		9.747	9.841	5.35		-1.24	0.000
907.87	29.505	-5.685	40.84		9.734	9.827	17.23		-1.24	0.000
908.14	29.480	-5.048	40.87		9.721	9.820	1.94		-1.24	0.000
908.41	29.457	-4.387	40.89		9.712	9.805	-31.66		-1.24	0.000
908.69	29.441	-3.726	40.91		9.702	9.789	-47.22		-1.24	0.000
908.96	29.424	-3.053	40.93		9.699	9.780	-83.98		-1.24	0.000
909.23	29.414	-2.368	40.94		9.693	9.768	-103.49		-1.24	0.000
909.51	29.405	-1.683	40.94		9.689	9.762	-127.28		-1.24	0.000
909.78	29.401	-0.986	40.95		9.691	9.756	-135.26		-1.24	0.000
910.05	29.399	-0.288	40.95		9.690	9.753	-137.08		-1.24	0.000
910.32	29.398	0.397	40.95		9.676	9.748	-145.99		-1.24	0.000
910.59	29.398	1.094	40.95		9.678	9.747	-175.85		-1.24	0.000
910.86	29.398	1.767	40.95		9.677	9.749	-195.20		-1.24	0.000
911.12	29.398	2.440	40.95		9.678	9.751	-203.73		-1.24	0.000
911.39	29.410	3.113	40.94		9.677	9.751	-199.77		-1.24	0.000
911.67	29.426	3.762	40.92		9.677	9.751	-162.44		-1.24	0.000
911.94	29.442	4.423	40.91		9.680	9.751	-138.85		-1.24	0.000
912.21	29.468	5.072	40.88		9.680	9.753	-95.72		-1.24	0.000
912.49	29.490	5.709	40.86		9.700	9.756	-69.53		-1.24	0.000
912.76	29.521	6.334	40.83		9.702	9.758	-31.24		-1.24	0.000
913.03	29.554	6.935	40.80		9.702	9.759	-26.75		-1.24	0.000
913.30	29.577	7.524	40.77		9.703	9.758	-32.82		-1.24	0.000
913.57	29.617	8.089	40.73		9.706	9.759	-39.88		-1.24	0.000
913.84	29.659	8.630	40.69		9.715	9.761	-24.00		-1.24	0.000
914.11	29.704	9.147	40.65		9.729	9.768	-11.18		-1.24	0.000
914.38	29.735	9.639	40.62		9.738	9.770	10.90		-1.24	0.000
914.65	29.785	10.120	40.57		9.728	9.781	6.56		-1.24	0.000
914.92	29.836	10.553	40.51		9.748	9.797	-14.50		-1.24	0.000
915.20	29.872	10.962	40.48		9.771	9.816	-23.94		-1.24	0.000
915.47	29.928	11.358	40.42		9.791	9.825	-66.75		-1.24	0.000
915.75	29.986	11.719	40.36		9.813	9.845	-78.67		-1.24	0.000
916.01	30.026	12.043	40.32		9.835	9.864	-86.03		-1.24	0.000
916.29	30.087	12.356	40.26		9.863	9.885	-82.34		-1.24	0.000
916.56	30.149	12.608	40.20		9.887	9.905	-77.69		-1.24	0.000
916.84	30.213	12.849	40.14		9.908	9.933	-82.00		-1.24	0.000
917.12	30.255	13.041	40.09		9.930	9.958	-78.49		-1.24	0.000
917.39	30.321	13.209	40.03		9.951	9.981	-72.11		-1.24	0.000
917.66	30.387	13.341	39.96		9.973	10.005	-32.07		-1.24	0.000
917.93	30.454	13.425	39.90		9.997	10.025	-16.63		-1.24	0.000
918.21	30.499	13.486	39.85		10.021	10.047	20.48		-1.24	0.000
918.48	30.567	13.510	39.78		10.046	10.061	43.02		-1.24	0.000
918.75	30.635	13.498	39.72		10.071	10.089	85.50		-1.24	0.000
919.02	30.680	13.438	39.67		10.093	10.118	107.46		-1.24	0.000
919.30	30.746	13.353	39.60		10.122	10.142	141.16		-1.24	0.000
919.58	30.812	13.233	39.54		10.156	10.164	138.34		-1.24	0.000
919.86	30.880	13.077	39.47		10.187	10.191	112.87		-1.24	0.000
920.12	30.921	12.885	39.43		10.227	10.227	93.02		-1.24	0.000
920.40	30.986	12.644	39.36		10.267	10.266	41.13		-1.24	0.000
920.67	31.049	12.392	39.30		10.302	10.312	13.81		-1.24	0.000
920.95	31.108	12.103	39.24		10.339	10.352	-37.95		-1.24	0.000
921.22	31.149	11.779	39.20		10.371	10.383	-63.33		-1.24	0.000
921.50	31.206	11.406	39.14		10.406	10.394	-102.59		-1.24	0.000
921.78	31.263	11.022	39.09		10.437	10.426	-164.91		-1.24	0.000
922.06	31.300	10.613	39.05		10.467	10.459	-195.13		-1.24	0.000
922.34	31.351	10.144	39.00		10.497	10.491	-213.56		-1.24	0.000
922.62	31.401	9.675	38.95		10.520	10.521	-196.31		-1.24	0.000
922.89	31.447	9.159	38.90		10.513	10.552	-144.66		-1.24	0.000
923.16	31.492	8.618	38.86		10.536	10.581	-121.29		-1.24	0.000
923.44	31.519	8.077	38.83		10.558	10.603	-82.94		-1.24	0.000
923.72	31.559	7.512	38.79		10.577	10.624	-57.88		-1.24	0.000
923.99	31.594	6.899	38.76		10.597	10.645	7.77		-1.24	0.000
924.26	31.626	6.286	38.72		10.616	10.666	35.23		-1.24	0.000
924.54	31.646	5.673	38.70		10.632	10.689	84.64		-1.24	0.000
924.80	31.673	5.036	38.68		10.643	10.699	92.35		-1.24	0.000
925.08	31.695	4.375	38.66		10.655	10.716	69.34		-1.24	0.000
925.35	31.709	3.726	38.64		10.668	10.731	37.42		-1.24	0.000
925.63	31.724	3.041	38.63		10.688	10.741	-42.55		-1.24	0.000
925.90	31.733	2.368	38.62		10.693	10.751	-67.39		-1.24	0.000
926.17	31.745	1.683	38.61		10.697	10.761	-59.81		-1.24	0.000
926.44	31.751	0.998	38.60		10.697	10.766	-44.48		-1.24	0.000
926.71	31.753	0.288	38.60		10.696	10.770	-30.36		-1.24	0.000
926.98	31.753	-0.385	38.60		10.695	10.771	-31.93		-1.24	0.000
927.26	31.753	-1.070	38.60		10.692	10.771	-33.58		-1.24	0.000
927.53	31.753	-1.755	38.60		10.688	10.770	-23.36		-1.24	0.000
927.80	31.753	-2.440	38.60		10.688	10.769	39.57		-1.24	0.000
928.07	31.742	-3.113	38.61		10.684	10.768	84.58		-1.24	0.000
928.34	31.726	-3.774	38.62		10.682	10.766	160.10		-1.24	0.000
928.61	31.703	-4.447	38.65		10.681	10.762	173.11		-1.24	0.000
928.90	31.677	-5.096	38.67		10.678	10.761	127.83		-1.24	0.000
929.17	31.659	-5.721	38.69		10.672	10.758	86.81		-1.24	0.000
929.45	31.630	-6.370	38.72		10.662	10.753	20.68		-1.24	0.000
929.73	31.595	-6.983	38.76		10.656	10.743	-17.12		-1.24	0.000
930.01	31.559	-7.584	38.79		10.657	10.737	-28.34		-1.24	0.000
930.28	31.531	-8.161	38.82		10.657	10.734	-46.27		-1.24	0.000
930.56	31.490	-8.714	38.86		10.655	10.727	-50.97		-1.24	0.000
930.84	31.444	-9.231	38.91		10.648	10.723	-49.42		-1.24	0.000
931.11	31.399	-9.736	38.95		10.621	10.717	-36.90		-1.24	0.000
931.38	31.364	-10.216	38.99		10.602	10.712	20.72		-1.24	0.000
931.65	31.313	-10.649	39.04		10.577	10.700	56.03		-1.24	0.000
931.94	31.256	-11.058	39.09		10.553	10.680	111.17		-1.24	0.000
932.22	31.201	-11.442	39.15		10.533	10.660	128.41		-1.24	0.000
932.50	31.163	-11.803	39.19		10.509	10.637	149.65		-1.24	0.000
932.78	31.103	-12.139	39.25		10.486	10.614	160.17		-1.24	0.000
933.05	31.041	-12.440	39.31		10.461	10.591	172.76		-1.24	0.000
933.33	30.977	-12.692	39.37		10.435	10.570	162.56		-1.24	0.000
933.61	30.935	-12.921	39.42		10.407	10.545	105.40		-1.24	0.000
933.88	30.871	-13.101	39.48		10.383	10.520	62.68		-1.24	0.000
934.16	30.804	-13.257	39.55		10.357	10.496	-35.24		-1.24	0.000
934.43	30.737	-13.377	39.61		10.364	10.466	-81.47		-1.24	0.000
934.71	30.694	-13.450	39.66		10.342	10.451	-153.29		-1.24	0.000
934.99	30.626	-13.498	39.72		10.314	10.426	-206.20		-1.24	0.000
935.27	30.559	-13.510	39.79		10.286	10.400	-227.34		-1.24	0.000
935.55	30.490	-13.474	39.86		10.258	10.374	-287.55		-1.24	0.000
935.82	30.423	-13.401	39.93		10.234	10.347	-324.67		-1.24	0.000
936.10	30.380	-13.305	39.97		10.207	10.320	-385.71		-1.24	0.000
936.37	30.313	-13.161	40.04		10.172	10.295	-385.69		-1.24	0.000
936.65	30.249	-12.993	40.10		10.134	10.269	-351.89		-1.24	0.000
936.93	30.185	-12.776	40.17		10.098	10.235	-335.57		-1.24	0.000
937.21	30.141	-12.524	40.21		10.056	10.202	-317.47		-1.24	0.000
937.48	30.080	-12.260	40.27		10.021	10.164	-315.52		-1.24	0.000
937.76	30.019	-11.935	40.33		10.000	10.132	-296.30		-1.24	0.000
938.03	29.960	-11.599	40.39		9.968	10.095	-288.55		-1.24	0.000
938.31	29.922	-11.202	40.43		9.940	10.060	-258.34		-1.24	0.000
938.58	29.867	-10.805	40.48		9.913	10.045	-239.52		-1.24	0.000
938.86	29.815	-10.373	40.53		9.884	10.011	-215.71		-1.24	0.000
939.14	29.762	-9.916	40.59		9.856	9.983	-215.89		-1.24	0.000
939.42	29.731	-9.423	40.62		9.832	9.954	-234.72		-1.24	0.000
939.70	29.685	-8.894	40.67		9.808	9.928	-254.22		-1.24	0.000
939.97	29.644	-8.341	40.71		9.791	9.902	-258.39		-1.24	0.000
940.25	29.603	-7.788	40.75		9.771	9.879	-228.08		-1.24	0.000
940.54	29.577	-7.200	40.77		9.753	9.856	-199.63		-1.24	0.000
940.81	29.545	-6.587	40.81		9.740	9.836	-137.44		-1.24	0.000
941.09	29.514	-5.950	40.84		9.718	9.817	-107.36		-1.24	0.000
941.37	29.486	-5.300	40.86		9.705	9.801	-69.96		-1.24	0.000
941.64	29.468	-4.651	40.88		9.690	9.788	-61.72		-1.24	0.000
941.92	29.450	-3.978	40.90		9.679	9.776	-72.38		-1.24	0.000
942.20	29.431	-3.317	40.92		9.670	9.765	-69.87		-1.24	0.000
942.47	29.415	-2.620	40.93		9.664	9.760	-51.43		-1.24	0.000
942.73	29.412	-1.923	40.94		9.662	9.751	-45.12		-1.24	0.000
943.01	29.403	-1.238	40.95		9.658	9.747	-13.52		-1.24	0.000
943.27	29.398	-0.565	40.95		9.657	9.743	1.23		-1.24	0.000
943.54	29.398	0.120	40.95		9.658	9.740	16.10		-1.24	0.000
943.80	29.398	0.805	40.95		9.680	9.738	6.02		-1.24	0.000
944.08	29.398	1.466	40.95		9.681	9.738	-46.38		-1.24	0.000
944.34	29.398	2.139	40.95		9.684	9.739	-60.84		-1.24	0.000
944.61	29.405	2.825	40.94		9.683	9.737	-48.71		-1.24	0.000
944.88	29.423	3.474	40.93		9.684	9.736	-19.42		-1.24	0.000
945.15	29.435	4.135	40.92		9.686	9.739	36.93		-1.24	0.000
945.41	29.458	4.784	40.89		9.665	9.741	64.39		-1.24	0.000
945.69	29.485	5.421	40.87		9.666	9.744	106.26		-1.24	0.000
945.96	29.503	6.034	40.85		9.668	9.744	107.77		-1.24	0.000
946.23	29.536	6.647	40.81		9.671	9.743	68.48		-1.24	0.000
946.50	29.572	7.248	40.78		9.672	9.742	36.95		-1.24	0.000
946.77	29.595	7.813	40.76		9.676	9.743	-6.65		-1.24	0.000
947.04	29.636	8.365	40.71		9.684	9.747	-11.69		-1.24	0.000
947.31	29.680	8.894	40.67		9.697	9.753	-7.46		-1.24	0.000
947.58	29.726	9.399	40.62		9.716	9.759	-4.64		-1.24	0.000
947.85	29.757	9.880	40.59		9.727	9.772	-11.89		-1.24	0.000
948.12	29.808	10.337	40.54		9.744	9.783	-24.56		-1.24	0.000
948.40	29.860	10.769	40.49		9.761	9.795	-80.40		-1.24	0.000
948.68	29.898	11.166	40.45		9.782	9.812	-100.17		-1.24	0.000
948.95	29.954	11.550	40.40		9.803	9.836	-124.91		-1.24	0.000
949.22	30.013	11.899	40.34		9.824	9.848	-118.63		-1.24	0.000
949.50	30.073	12.224	40.28		9.847	9.867	-84.47		-1.24	0.000
949.77	30.114	12.488	40.24		9.870	9.889	-61.19		-1.24	0.000
950.04	30.177	12.740	40.17		9.891	9.916	-17.25		-1.24	0.000
950.31	30.241	12.957	40.11		9.909	9.940	-1.86		-1.24	0.000
950.58	30.285	13.137	40.07		9.931	9.962	18.03		-1.24	0.000
950.85	30.350	13.281	40.00		9.957	9.984	16.79		-1.24	0.000
951.12	30.418	13.389	39.93		9.981	10.003	24.17		-1.24	0.000
951.39	30.483	13.462	39.87		10.006	10.027	21.80		-1.24	0.000
951.67	30.528	13.498	39.82		10.031	10.051	3.24		-1.24	0.000
951.94	30.596	13.510	39.75		10.058	10.062	-13.08		-1.24	0.000
952.21	30.664	13.474	39.69		10.085	10.085	-63.55		-1.24	0.000
952.49	30.709	13.401	39.64		10.077	10.108	-82.18		-1.24	0.000
952.77	30.776	13.305	39.57		10.102	10.137	-106.49		-1.24	0.000
953.04	30.841	13.161	39.51		10.140	10.163	-112.67		-1.24	0.000
953.33	30.906	12.993	39.44		10.178	10.196	-120.30		-1.24	0.000
953.61	30.972	12.776	39.38		10.214	10.233	-143.33		-1.24	0.000
953.89	31.013	12.524	39.34		10.252	10.271	-152.58		-1.24	0.000
954.17	31.076	12.236	39.27		10.288	10.309	-153.82		-1.24	0.000
954.45	31.136	11.911	39.21		10.323	10.341	-136.16		-1.24	0.000
954.73	31.195	11.563	39.16		10.356	10.380	-98.39		-1.24	0.000
955.00	31.232	11.178	39.12		10.387	10.418	-83.68		-1.24	0.000
955.28	31.287	10.769	39.06		10.417	10.449	-75.16		-1.24	0.000
955.56	31.340	10.325	39.01		10.446	10.479	-86.16		-1.24	0.000
955.84	31.390	9.868	38.96		10.473	10.509	-134.72		-1.24	0.000
956.12	31.423	9.363	38.93		10.496	10.522	-166.63		-1.24	0.000
956.40	31.469	8.834	38.88		10.522	10.550	-221.67		-1.24	0.000
956.68	31.512	8.281	38.84		10.551	10.579	-257.59		-1.24	0.000
956.96	31.551	7.704	38.80		10.572	10.603	-277.41		-1.24	0.000
957.23	31.588	7.103	38.76		10.591	10.622	-330.05		-1.24	0.000
957.51	31.612	6.502	38.74		10.609	10.643	-347.95		-1.24	0.000
957.79	31.641	5.877	38.71		10.626	10.662	-356.13		-1.24	0.000
958.08	31.669	5.228	38.68		10.638	10.678	-342.27		-1.24	0.000
958.36	31.688	4.567	38.66		10.649	10.699	-285.04		-1.24	0.000
958.63	31.712	3.882	38.64		10.658	10.713	-243.93		-1.24	0.000
958.91	31.726	3.197	38.62		10.667	10.725	-165.37		-1.24	0.000
959.19	31.738	2.500	38.61		10.669	10.738	-120.49		-1.24	0.000
959.46	31.747	1.803	38.60		10.671	10.747	-36.79		-1.24	0.000
959.72	31.750	1.106	38.60		10.673	10.754	3.96		-1.24	0.000
959.99	31.754	0.421	38.60		10.675	10.755	87.77		-1.24	0.000
960.25	31.754	-0.228	38.60		10.675	10.756	132.85		-1.24	0.000
960.53	31.754	-0.925	38.60		10.673	10.756	214.51		-1.24	0.000
960.80	31.754	-1.599	38.60		10.674	10.753	252.76		-1.24	0.000
961.07	31.754	-2.284	38.60		10.674	10.750	303.48		-1.24	0.000
961.35	31.745	-2.957	38.61		10.673	10.748	308.95		-1.24	0.000
961.63	31.732	-3.642	38.62		10.673	10.747	272.23		-1.24	0.000
961.90	31.708	-4.315	38.64		10.670	10.746	245.80		-1.24	0.000
962.17	31.685	-4.976	38.67		10.670	10.745	176.37		-1.24	0.000
962.44	31.659	-5.613	38.69		10.647	10.742	147.14		-1.24	0.000
962.72	31.638	-6.238	38.71		10.639	10.740	119.62		-1.24	0.000
963.00	31.606	-6.839	38.74		10.630	10.734	116.78		-1.24	0.000
963.27	31.567	-7.452	38.78		10.626	10.729	111.92		-1.24	0.000
963.55	31.544	-8.029	38.81		10.624	10.723	95.05		-1.24	0.000
963.83	31.503	-8.570	38.85		10.622	10.717	31.65		-1.24	0.000
964.10	31.456	-9.111	38.89		10.617	10.713	-31.19		-1.24	0.000
964.38	31.412	-9.615	38.94		10.600	10.709	-49.05		-1.24	0.000
964.66	31.362	-10.096	38.99		10.580	10.706	-88.08		-1.24	0.000
964.94	31.327	-10.553	39.02		10.558	10.690	-92.60		-1.24	0.000
965.22	31.274	-10.986	39.08		10.535	10.670	-119.45		-1.24	0.000
965.51	31.217	-11.382	39.13		10.545	10.645	-136.60		-1.24	0.000
965.78	31.159	-11.743	39.19		10.520	10.623	-177.96		-1.24	0.000
966.06	31.119	-12.091	39.23		10.497	10.601	-194.83		-1.24	0.000
966.34	31.059	-12.380	39.29		10.474	10.582	-197.79		-1.24	0.000
966.61	30.995	-12.644	39.36		10.448	10.559	-177.78		-1.24	0.000
966.90	30.933	-12.885	39.42		10.421	10.534	-167.03		-1.24	0.000
967.17	30.867	-13.077	39.48		10.395	10.517	-189.82		-1.24	0.000
967.45	30.823	-13.233	39.53		10.369	10.490	-187.50		-1.24	0.000
967.73	30.756	-13.365	39.59		10.344	10.465	-169.60		-1.24	0.000
968.01	30.690	-13.450	39.66		10.318	10.439	-152.51		-1.24	0.000
968.30	30.623	-13.498	39.73		10.288	10.412	-128.96		-1.24	0.000
968.58	30.578	-13.510	39.77		10.261	10.389	-135.74		-1.24	0.000
968.86	30.509	-13.474	39.84		10.233	10.364	-171.52		-1.24	0.000
969.14	30.442	-13.413	39.91		10.211	10.335	-204.93		-1.24	0.000
969.42	30.376	-13.317	39.97		10.182	10.311	-259.89		-1.24	0.000
969.70	30.310	-13.173	40.04		10.151	10.284	-265.98		-1.24	0.000
969.98	30.265	-12.993	40.08		10.111	10.259	-233.93		-1.24	0.000
970.26	30.201	-12.776	40.15		10.093	10.228	-210.51		-1.24	0.000
970.55	30.139	-12.536	40.21		10.059	10.190	-204.31		-1.24	0.000
970.83	30.076	-12.248	40.27		10.028	10.151	-199.17		-1.24	0.000
971.11	30.017	-11.923	40.33		9.998	10.114	-190.97		-1.24	0.000
971.39	29.977	-11.575	40.37		9.966	10.085	-157.94		-1.24	0.000
971.67	29.921	-11.190	40.43		9.938	10.054	-155.77		-1.24	0.000
971.95	29.864	-10.769	40.49		9.909	10.025	-163.11		-1.24	0.000
972.23	29.813	-10.337	40.54		9.882	9.993	-177.02		-1.24	0.000
972.51	29.762	-9.856	40.59		9.854	9.965	-210.27		-1.24	0.000
972.79	29.731	-9.363	40.62		9.829	9.933	-238.06		-1.24	0.000
973.07	29.683	-8.822	40.67		9.800	9.917	-234.83		-1.24	0.000
973.35	29.641	-8.269	40.71		9.780	9.891	-228.37		-1.24	0.000
973.63	29.603	-7.704	40.75		9.764	9.869	-231.71		-1.24	0.000
973.91	29.565	-7.103	40.78		9.742	9.845	-278.12		-1.24	0.000
974.19	29.545	-6.490	40.81		9.728	9.823	-312.63		-1.24	0.000
974.46	29.514	-5.853	40.84		9.714	9.805	-326.81		-1.24	0.000
974.74	29.485	-5.204	40.87		9.706	9.787	-321.66		-1.24	0.000
975.02	29.463	-4.555	40.89		9.677	9.776	-287.47		-1.24	0.000
975.29	29.449	-3.882	40.90		9.667	9.763	-267.35		-1.24	0.000
975.58	29.431	-3.197	40.92		9.657	9.752	-214.31		-1.24	0.000
975.85	29.421	-2.512	40.93		9.654	9.743	-184.85		-1.24	0.000
976.12	29.410	-1.803	40.94		9.649	9.736	-132.24		-1.24	0.000
976.39	29.407	-1.118	40.94		9.645	9.731	-106.74		-1.24	0.000
976.67	29.403	-0.421	40.95		9.649	9.727	-91.69		-1.24	0.000
976.93	29.401	0.252	40.95		9.647	9.726	-77.46		-1.24	0.000
977.20	29.401	0.950	40.95		9.649	9.726	-49.89		-1.24	0.000
977.47	29.401	1.623	40.95		9.673	9.727	-32.48		-1.24	0.000
977.73	29.401	2.308	40.95		9.668	9.728	3.64		-1.24	0.000
978.00	29.409	2.969	40.94		9.671	9.727	14.33		-1.24	0.000
